time,seconds_elapsed,z,y,x
1747571324974342100,0.078342041015625,-0.012631416320800781,-0.0023332834243774414,0.001061849296092987
1747571324990302500,0.094302490234375,-0.03662872314453125,-0.0258786678314209,-0.01589801162481308
1747571325006293500,0.11029345703125,0.025592803955078125,0.012617707252502441,-0.03743893653154373
1747571325022253800,0.12625390625,-0.06540107727050781,0.0031877756118774414,0.009917259216308594
1747571325038244900,0.142244873046875,-0.017525672912597656,0.008071184158325195,-0.009710296988487244
1747571325054236000,0.15823583984375,-0.017563819885253906,-0.001223444938659668,-0.002744115889072418
1747571325070196200,0.1741962890625,-0.005639076232910156,0.030279994010925293,-0.013031110167503357
1747571325086187300,0.190187255859375,-0.015255928039550781,-0.0053424835205078125,0.0012178421020507812
1747571325102147600,0.206147705078125,-0.008008956909179688,0.0004061460494995117,-0.01777338981628418
1747571325118138600,0.222138671875,-0.0033016204833984375,0.003367900848388672,0.03721217066049576
1747571325134099000,0.238098876953125,-0.048847198486328125,0.015716552734375,0.010896570980548859
1747571325150090000,0.254090087890625,-0.012169837951660156,-0.01998007297515869,-0.014430388808250427
1747571325166050300,0.27005029296875,-0.014616012573242188,-0.012464404106140137,-0.007024586200714111
1747571325182041300,0.286041259765625,-0.0026683807373046875,-0.014666080474853516,-0.014572866261005402
1747571325198001700,0.302001708984375,-0.017098426818847656,-0.004660487174987793,-0.004793085157871246
1747571325213992700,0.31799267578125,-0.02286243438720703,-0.005701303482055664,-0.023813024163246155
1747571325229953300,0.333953369140625,-0.04441547393798828,-0.0008690357208251953,0.004721947014331818
1747571325245944000,0.349944091796875,0.0011034011840820312,0.018099427223205566,0.01170724630355835
1747571325261904600,0.365904541015625,-0.008520126342773438,0.006461024284362793,0.011639557778835297
1747571325277895400,0.3818955078125,-0.0277252197265625,-0.005129337310791016,0.01133459061384201
1747571325293856000,0.39785595703125,-0.022963523864746094,-0.024092912673950195,-0.010314300656318665
1747571325309846800,0.4138466796875,-0.011020660400390625,0.007224321365356445,0.0064582303166389465
1747571325325807400,0.429807373046875,-0.05414295196533203,0.00027954578399658203,-0.0085391104221344
1747571325341798100,0.445798095703125,0.000911712646484375,0.0003769397735595703,0.00810481607913971
1747571325357758700,0.4617587890625,-0.06371593475341797,0.038590431213378906,0.00542016327381134
1747571325373719000,0.477718994140625,0.0009279251098632812,0.014672040939331055,0.00034040212631225586
1747571325389710000,0.4937099609375,-0.04694366455078125,-0.004563808441162109,-0.002111494541168213
1747571325405670400,0.50967041015625,0.02724170684814453,-0.004327893257141113,0.009920619428157806
1747571325421661400,0.525661376953125,-0.075714111328125,-0.0042809247970581055,-0.014163203537464142
1747571325437621800,0.541621826171875,-0.011068344116210938,-0.009072661399841309,-0.002394840121269226
1747571325453612800,0.55761279296875,-0.02783966064453125,0.017358899116516113,0.00952785462141037
1747571325469603800,0.573603759765625,0.0008907318115234375,0.005389809608459473,-0.002470560371875763
1747571325485564200,0.589564208984375,-0.05896186828613281,-0.004184603691101074,0.004358068108558655
1747571325501555200,0.60555517578125,0.0008611679077148438,-0.018313288688659668,0.0066037848591804504
1747571325517515500,0.621515625,-0.06139373779296875,0.003278970718383789,-0.012610383331775665
1747571325533506600,0.637506591796875,0.010419845581054688,0.027314424514770508,-0.0007204189896583557
1747571325549467000,0.653466796875,-0.03501319885253906,0.007784247398376465,-0.005718722939491272
1747571325565458000,0.6694580078125,-0.018280029296875,0.01999056339263916,0.005561813712120056
1747571325581418200,0.685418212890625,-0.027849197387695312,-0.003997921943664551,-0.011298969388008118
1747571325597409300,0.7014091796875,0.0032339096069335938,-0.0037142038345336914,-0.013686344027519226
1747571325613400300,0.717400390625,0.000850677490234375,-0.0013709068298339844,-0.011488065123558044
1747571325629360600,0.733360595703125,-0.003989219665527344,-0.003340005874633789,-0.014727286994457245
1747571325645351700,0.7493515625,-0.0016603469848632812,-0.00046634674072265625,0.03042929619550705
1747571325661342500,0.765342529296875,-0.004119873046875,0.011980533599853516,-0.010582566261291504
1747571325677303000,0.781302978515625,-0.016187667846679688,0.00311124324798584,0.005730576813220978
1747571325693293800,0.7972939453125,0.012470245361328125,0.013211369514465332,-0.013681799173355103
1747571325709284900,0.813284912109375,-0.06180763244628906,-0.007909059524536133,-0.006804533302783966
1747571325725245200,0.8292451171875,-0.0043926239013671875,0.00918424129486084,-0.016537122428417206
1747571325741236200,0.845236328125,0.00033092498779296875,-0.004709005355834961,-0.00723709911108017
1747571325757227300,0.861227294921875,-0.011744499206542969,0.0247805118560791,-0.010037742555141449
1747571325773187600,0.8771875,-0.01670551300048828,0.016416549682617188,-0.02458120882511139
1747571325789178600,0.8931787109375,-0.012052536010742188,-0.004185676574707031,0.008897624909877777
1747571325805139000,0.909138916015625,-0.036101341247558594,-0.0010238885879516602,0.0014114007353782654
1747571325821130000,0.9251298828125,-0.026601791381835938,0.013895153999328613,-0.010821662843227386
1747571325837120800,0.941120849609375,-0.009939193725585938,0.0026776790618896484,0.0003033876419067383
1747571325853081300,0.957081298828125,-0.07225227355957031,0.015147805213928223,0.01646125316619873
1747571325869072400,0.973072265625,-0.029249191284179688,0.03494060039520264,0.016555845737457275
1747571325885063200,0.989063232421875,-0.0341033935546875,-0.03639209270477295,-0.041334494948387146
1747571325901023700,1.005023681640625,-0.024534225463867188,-0.04347705841064453,-0.039445966482162476
1747571325917014500,1.0210146484375,-0.02457141876220703,-0.02408730983734131,-0.039162397384643555
1747571325932975000,1.03697509765625,0.0017185211181640625,0.00017702579498291016,-0.005713135004043579
1747571325948966000,1.0529658203125,-0.031795501708984375,0.02170717716217041,-0.008284226059913635
1747571325964926500,1.068926513671875,0.001720428466796875,0.021730422973632812,0.008442826569080353
1747571325980917200,1.084917236328125,-0.024600982666015625,0.033602118492126465,0.003632858395576477
1747571325996908300,1.100908203125,-0.03422260284423828,0.01238870620727539,0.02252185344696045
1747571326012868600,1.11686865234375,-0.01033782958984375,-0.01592707633972168,0.005646057426929474
1747571326028859600,1.132859619140625,-0.010407447814941406,0.0013098716735839844,-0.006223447620868683
1747571326044850700,1.1488505859375,-0.034381866455078125,-0.01521003246307373,-0.011181250214576721
1747571326060811000,1.16481103515625,-0.017653465270996094,-0.005395770072937012,-0.006684429943561554
1747571326076802000,1.180802001953125,-0.02007293701171875,0.0020093917846679688,0.00005143880844116211
1747571326092792800,1.196792724609375,-0.04159259796142578,0.01859283447265625,-0.01936287432909012
1747571326108753400,1.21275341796875,-0.0008563995361328125,0.020761847496032715,0.004362456500530243
1747571326124744400,1.228744384765625,-0.015212059020996094,0.025527596473693848,0.006316930055618286
1747571326140704800,1.244704833984375,-0.022394180297851562,0.0015648603439331055,-0.0031323954463005066
1747571326156695800,1.26069580078125,-0.0223846435546875,-0.0032584667205810547,-0.005914561450481415
1747571326172686600,1.2766865234375,-0.017641067504882812,0.009013772010803223,-0.00817815214395523
1747571326188647200,1.292647216796875,-0.03682708740234375,-0.0003343820571899414,-0.03209296613931656
1747571326204638000,1.308637939453125,-0.03208351135253906,0.004760622978210449,0.006243452429771423
1747571326220598500,1.3245986328125,-0.02495098114013672,0.014728903770446777,0.0010755732655525208
1747571326236589300,1.34058935546875,0.0037860870361328125,0.009927511215209961,-0.013693220913410187
1747571326252550000,1.3565498046875,-0.024949073791503906,0.02432107925415039,-0.0064729005098342896
1747571326268540700,1.372540771484375,-0.048885345458984375,0.007528901100158691,-0.006547823548316956
1747571326284531700,1.38853173828125,-0.03217315673828125,-0.0017080307006835938,-0.01145673543214798
1747571326300492000,1.404491943359375,-0.008205413818359375,-0.011421442031860352,-0.028687268495559692
1747571326316483000,1.420483154296875,-0.027375221252441406,0.007879853248596191,-0.0075784772634506226
1747571326332443600,1.436443603515625,-0.03697395324707031,-0.0182877779006958,0.008992120623588562
1747571326348434400,1.452434326171875,-0.015431404113769531,0.017695903778076172,-0.005633682012557983
1747571326364425500,1.468425537109375,-0.03219890594482422,0.02254962921142578,-0.010617531836032867
1747571326380385800,1.4843857421875,-0.025051116943359375,-0.010728001594543457,0.0014732033014297485
1747571326396376800,1.500376953125,-0.0131072998046875,0.013416647911071777,-0.005898565053939819
1747571326412368000,1.516367919921875,-0.029865264892578125,0.020631074905395508,-0.011147908866405487
1747571326428328200,1.532328125,-0.02505207061767578,0.02049267292022705,-0.011525534093379974
1747571326444319200,1.5483193359375,-0.027449607849121094,-0.015406966209411621,-0.023396797478199005
1747571326460310000,1.56431005859375,-0.017859458923339844,-0.0011483430862426758,-0.011317826807498932
1747571326476270600,1.5802705078125,-0.013064384460449219,0.017988920211791992,-0.028363265097141266
1747571326492261400,1.596261474609375,-0.034605979919433594,0.027548909187316895,0.00008471310138702393
1747571326508222000,1.612221923828125,-0.015492439270019531,0.015880107879638672,-0.00017629563808441162
1747571326524212700,1.628212646484375,-0.029868125915527344,0.03034389019012451,-0.007591798901557922
1747571326540203800,1.644203857421875,-0.00830078125,0.008673548698425293,-0.017360791563987732
1747571326556164000,1.6601640625,-0.032258033752441406,-0.0055925846099853516,-0.014863617718219757
1747571326572155100,1.676155029296875,-0.017920494079589844,0.013766884803771973,-0.01986423134803772
1747571326588146200,1.692146240234375,-0.046668052673339844,-0.026804327964782715,-0.007964804768562317
1747571326604137000,1.708136962890625,-0.017914772033691406,-0.005374908447265625,-0.005997151136398315
1747571326620097500,1.72409765625,-0.029935836791992188,0.0021827220916748047,0.000966489315032959
1747571326636088300,1.74008837890625,-0.010865211486816406,0.02432382106781006,-0.011166311800479889
1747571326652079400,1.756079345703125,0.03458690643310547,0.0222015380859375,-0.02088257670402527
1747571326668040000,1.7720400390625,0.0035495758056640625,0.004818320274353027,-0.027885548770427704
1747571326684030700,1.78803076171875,-0.04198265075683594,-0.004447817802429199,-0.03283056616783142
1747571326700021800,1.804021728515625,-0.018052101135253906,-0.04026687145233154,-0.021020427346229553
1747571326715982000,1.819982177734375,-0.04915618896484375,-0.02606213092803955,-0.011268489062786102
1747571326731973000,1.83597314453125,0.010706901550292969,0.007385849952697754,-0.03746972978115082
1747571326747933400,1.851933349609375,0.06345939636230469,0.04272615909576416,-0.0038018375635147095
1747571326763924500,1.867924560546875,-0.044223785400390625,0.032736897468566895,0.0036183446645736694
1747571326779884800,1.883884765625,-0.041863441467285156,-0.014863848686218262,-0.008789300918579102
1747571326795875800,1.899875732421875,-0.065826416015625,-0.01711571216583252,-0.020807713270187378
1747571326811867000,1.915866943359375,-0.027494430541992188,-0.03881847858428955,-0.04968322813510895
1747571326827827200,1.9318271484375,0.0060749053955078125,0.025436997413635254,-0.013443194329738617
1747571326843818200,1.947818359375,0.010931015014648438,0.017756104469299316,-0.008425399661064148
1747571326859778600,1.963778564453125,0.01818561553955078,0.0292283296585083,-0.013123758137226105
1747571326875769600,1.97976953125,-0.015340805053710938,0.029285192489624023,-0.0107816681265831
1747571326891730000,1.99572998046875,0.022991180419921875,-0.011611104011535645,-0.024968884885311127
1747571326907721000,2.011720947265625,-0.03206062316894531,0.009801983833312988,-0.017528608441352844
1747571326923711700,2.027711669921875,0.03499889373779297,0.031199097633361816,0.006397843360900879
1747571326939672300,2.04367236328125,-0.022424697875976562,0.0022287368774414062,-0.015332050621509552
1747571326955663400,2.059663330078125,0.02547168731689453,-0.005035281181335449,-0.046510182321071625
1747571326971623700,2.075623779296875,-0.03909873962402344,0.011208772659301758,-0.09668010473251343
1747571326987614700,2.09161474609375,0.004027366638183594,0.018182992935180664,-0.11349675059318542
1747571327003575000,2.107574951171875,0.04237842559814453,0.02256476879119873,-0.09083214402198792
1747571327019566000,2.123566162109375,-0.02699565887451172,0.022041916847229004,0.03248132765293121
1747571327035556900,2.139556884765625,-0.019779205322265625,0.0050427913665771484,0.0972631424665451
1747571327051517400,2.155517333984375,-0.0197601318359375,0.012125372886657715,0.02744215726852417
1747571327067508200,2.17150830078125,-0.0005435943603515625,0.03085005283355713,0.022552669048309326
1747571327083468800,2.18746875,-0.0196990966796875,0.002175569534301758,-0.0042607784271240234
1747571327099459600,2.20345947265625,-0.017266273498535156,0.037824153900146484,-0.009105809032917023
1747571327115420200,2.219420166015625,-0.03398704528808594,-0.005522608757019043,-0.01888994872570038
1747571327131411200,2.2354111328125,-0.02919292449951172,-0.005551338195800781,-0.007054254412651062
1747571327147371500,2.25137158203125,-0.038763999938964844,0.006421566009521484,-0.026648186147212982
1747571327163362600,2.267362548828125,-0.031546592712402344,-0.010581612586975098,-0.03627005219459534
1747571327179323000,2.283322998046875,0.01629638671875,0.016052722930908203,0.013850614428520203
1747571327195314000,2.29931396484375,-0.012388229370117188,-0.0009971857070922852,0.008770987391471863
1747571327211274200,2.315274169921875,-0.01241302490234375,0.03032052516937256,-0.02250012755393982
1747571327227265300,2.331265380859375,-0.02674579620361328,0.013335466384887695,0.003819897770881653
1747571327243256000,2.347256103515625,-0.01714801788330078,0.013228297233581543,-0.010985977947711945
1747571327259216600,2.363216552734375,-0.05543327331542969,-0.013263821601867676,0.012929141521453857
1747571327275207400,2.37920751953125,-0.0051441192626953125,0.010631680488586426,-0.03755851089954376
1747571327291168000,2.39516796875,-0.0026845932006835938,0.01971876621246338,-0.0516238659620285
1747571327307159000,2.411158935546875,-0.01941204071044922,0.029067039489746094,-0.029977567493915558
1747571327323119400,2.427119384765625,0.016511917114257812,0.007428526878356934,0.0013107359409332275
1747571327339110400,2.4431103515625,-0.00021266937255859375,-0.011978626251220703,0.0062309205532073975
1747571327355070700,2.45907080078125,-0.04326629638671875,0.01170206069946289,0.0058949291706085205
1747571327371061800,2.475061767578125,-0.026491165161132812,0.004424929618835449,0.01768757402896881
1747571327387022000,2.49102197265625,-0.00011348724365234375,0.006535768508911133,-0.006273597478866577
1747571327403013000,2.50701318359375,0.021455764770507812,0.020744919776916504,-0.015881545841693878
1747571327418973400,2.522973388671875,-0.02403736114501953,0.008816242218017578,-0.02795226126909256
1747571327434964500,2.538964599609375,-0.024049758911132812,0.025701165199279785,-0.0667046457529068
1747571327450924800,2.5549248046875,0.0046825408935546875,0.02086484432220459,-0.054363980889320374
1747571327466915800,2.570915771484375,-0.033629417419433594,-0.007864236831665039,0.022598624229431152
1747571327482876200,2.586876220703125,0.00945281982421875,0.008951783180236816,0.051685795187950134
1747571327498836700,2.602836669921875,-0.04557991027832031,0.018296003341674805,-0.0010503381490707397
1747571327514827500,2.61882763671875,-0.012032508850097656,-0.005800843238830566,-0.025433562695980072
1747571327530788000,2.6347880859375,-0.012006759643554688,-0.008338093757629395,-0.018701627850532532
1747571327546779000,2.65077880859375,-0.019147872924804688,-0.00859689712524414,-0.03089771419763565
1747571327562739500,2.666739501953125,-0.019164085388183594,0.0417557954788208,-0.004187777638435364
1747571327578730200,2.682730224609375,-0.047850608825683594,-0.006415843963623047,-0.01154046505689621
1747571327594690800,2.69869091796875,0.012065887451171875,0.0123368501663208,-0.007095515727996826
1747571327610681900,2.714681884765625,-0.040610313415527344,0.014800548553466797,-0.009936392307281494
1747571327626642200,2.73064208984375,-0.011885643005371094,0.012412428855895996,-0.004740536212921143
1747571327642633200,2.74663330078125,-0.016701698303222656,0.007810235023498535,0.000056624412536621094
1747571327658593500,2.762593505859375,-0.014286994934082031,0.014867067337036133,-0.016843445599079132
1747571327674584600,2.77858447265625,-0.03103923797607422,0.019605517387390137,-0.002529829740524292
1747571327690545000,2.794544921875,-0.02862548828125,-0.009243369102478027,-0.019448041915893555
1747571327706536000,2.810535888671875,-0.007061958312988281,0.005014657974243164,-0.024262472987174988
1747571327722496300,2.826496337890625,-0.02864360809326172,0.026763081550598145,-0.009510606527328491
1747571327738487300,2.8424873046875,-0.021368980407714844,0.03813016414642334,-0.009899914264678955
1747571327754447600,2.858447509765625,-0.035681724548339844,-0.010144829750061035,-0.031216658651828766
1747571327770408200,2.874408203125,-0.014131546020507812,-0.005352497100830078,-0.012225322425365448
1747571327786399000,2.89039892578125,-0.03087902069091797,0.0065577030181884766,-0.03880256414413452
1747571327802359600,2.906359619140625,-0.00215911865234375,0.013787269592285156,-0.007421970367431641
1747571327818350300,2.922350341796875,-0.02370738983154297,0.020969867706298828,-0.004987120628356934
1747571327834311000,2.938310791015625,-0.023656845092773438,0.020632266998291016,-0.014628179371356964
1747571327850301700,2.9543017578125,-0.026037216186523438,0.013367891311645508,0.01626165211200714
1747571327866262300,2.97026220703125,-0.02366352081298828,0.03744995594024658,-0.007659599184989929
1747571327882253300,2.98625341796875,-0.014080047607421875,0.025447964668273926,0.001811683177947998
1747571327898213600,3.002213623046875,-0.00209808349609375,0.0062007904052734375,-0.03160027414560318
1747571327914204700,3.01820458984375,-0.006829261779785156,-0.008541226387023926,-0.003079235553741455
1747571327930165000,3.0341650390625,-0.016411781311035156,0.015455245971679688,-0.029592595994472504
1747571327946156000,3.050156005859375,-0.01879405975341797,0.005781650543212891,-0.03661079704761505
1747571327962116400,3.066116455078125,-0.023591995239257812,-0.01094520092010498,-0.02904830127954483
1747571327978107400,3.082107421875,-0.02355480194091797,0.005562782287597656,-0.019516736268997192
1747571327994067700,3.098067626953125,-0.013987541198730469,-0.008762001991271973,-0.02881089597940445
1747571328010058800,3.114058837890625,-0.030714988708496094,0.04374492168426514,-0.012672312557697296
1747571328026019000,3.13001904296875,-0.04027366638183594,0.0005011558532714844,-0.010124027729034424
1747571328042010000,3.146010009765625,-0.025905609130859375,-0.011518239974975586,-0.021762311458587646
1747571328057970400,3.161970458984375,-0.037845611572265625,-0.01653158664703369,-0.023995503783226013
1747571328073961500,3.17796142578125,0.0028390884399414062,0.03387033939361572,-0.01931828260421753
1747571328089921800,3.193921875,-0.04747200012207031,0.012535452842712402,-0.009565934538841248
1747571328105912800,3.209912841796875,-0.009166717529296875,0.00536656379699707,-0.03106040507555008
1747571328121873200,3.225873046875,-0.03550434112548828,-0.004230499267578125,-0.021209314465522766
1747571328137864200,3.2418642578125,-0.006752967834472656,-0.006765484809875488,-0.02123449742794037
1747571328153824800,3.25782470703125,-0.01632976531982422,0.007609128952026367,-0.0309741273522377
1747571328169815600,3.273815673828125,0.0052051544189453125,-0.0018470287322998047,0.002262517809867859
1747571328185776000,3.289776123046875,-0.023561477661132812,0.007951736450195312,-0.016595400869846344
1747571328201767000,3.305766845703125,-0.021198272705078125,0.000990748405456543,-0.016658522188663483
1747571328217727500,3.3217275390625,0.01947784423828125,0.015537261962890625,-0.08375534415245056
1747571328233687800,3.337687744140625,-0.014024734497070312,-0.01334071159362793,-0.04981045424938202
1747571328249678800,3.353678955078125,-0.0020265579223632812,0.01275324821472168,-0.0013822317123413086
1747571328265639200,3.36963916015625,-0.028367042541503906,0.01041567325592041,0.01509132981300354
1747571328281630200,3.385630126953125,-0.016396522521972656,0.020002007484436035,0.02218852937221527
1747571328297590500,3.401590576171875,-0.025941848754882812,0.007831335067749023,-0.021134555339813232
1747571328313581600,3.41758154296875,-0.030767440795898438,0.005757927894592285,-0.02658694237470627
1747571328329542000,3.4335419921875,-0.014002799987792969,0.020094871520996094,-0.024265095591545105
1747571328345502500,3.44950244140625,0.007557868957519531,0.029529094696044922,0.0002470165491104126
1747571328361493200,3.4654931640625,-0.02109241485595703,0.014590620994567871,-0.03304649889469147
1747571328377453800,3.481453857421875,-0.01629161834716797,0.024076461791992188,-0.023458227515220642
1747571328393444600,3.497444580078125,-0.042613983154296875,0.014421701431274414,-0.018864810466766357
1747571328409405200,3.5134052734375,-0.011463165283203125,0.030988216400146484,-0.00441211462020874
1747571328425396200,3.529396240234375,-0.013808250427246094,-0.002832770347595215,-0.014379821717739105
1747571328441356500,3.5453564453125,-0.030591964721679688,0.0021543502807617188,-0.00039218366146087646
1747571328457347600,3.56134765625,-0.011493682861328125,-0.021416187286376953,-0.04575163871049881
1747571328473308000,3.577307861328125,-0.02593517303466797,0.0030289888381958008,-0.01905210316181183
1747571328489299000,3.593298828125,-0.028405189514160156,0.0059593915939331055,0.002387911081314087
1747571328505259300,3.60925927734375,-0.03803253173828125,0.013508796691894531,-0.02884490042924881
1747571328521250300,3.625250244140625,-0.004485130310058594,0.010913729667663574,-0.052826881408691406
1747571328537210600,3.641210693359375,-0.02600383758544922,0.013115525245666504,-0.0003027915954589844
1747571328553201700,3.65720166015625,-0.0044879913330078125,-0.0034003257751464844,-0.03159082680940628
1747571328569162000,3.673161865234375,-0.011662483215332031,0.015653014183044434,-0.01921248435974121
1747571328585153000,3.689153076171875,-0.028443336486816406,0.006212353706359863,-0.004646196961402893
1747571328601113300,3.70511328125,-0.016431808471679688,0.020287394523620605,-0.018972590565681458
1747571328617104400,3.7211044921875,-0.018831253051757812,0.027507543563842773,0.009782642126083374
1747571328633064700,3.737064697265625,-0.018831253051757812,0.027520060539245605,0.00006563961505889893
1747571328649055700,3.7530556640625,-0.04992961883544922,-0.008550405502319336,-0.04091481864452362
1747571328665016000,3.76901611328125,-0.002010345458984375,0.00318300724029541,-0.021853700280189514
1747571328681007000,3.785007080078125,-0.01873779296875,0.012564897537231445,-0.014964602887630463
1747571328696967400,3.800967529296875,-0.0043964385986328125,0.015120148658752441,0.009055599570274353
1747571328712958500,3.81695849609375,-0.033168792724609375,0.013017892837524414,-0.01248573511838913
1747571328728949500,3.832949462890625,-0.004467010498046875,0.013189077377319336,-0.0026408135890960693
1747571328744909800,3.848909912109375,-0.04757213592529297,0.013278603553771973,-0.014856763184070587
1747571328760900900,3.86490087890625,-0.023662567138671875,-0.007978081703186035,-0.027503602206707
1747571328776861200,3.880861083984375,-0.011720657348632812,0.013763666152954102,-0.027439065277576447
1747571328792852200,3.896852294921875,-0.02608966827392578,-0.0005952119827270508,-0.012926153838634491
1747571328808812500,3.9128125,-0.014136314392089844,0.006721377372741699,-0.010568574070930481
1747571328824803600,3.928803466796875,0.00025653839111328125,0.018541932106018066,-0.027827464044094086
1747571328840794600,3.944794677734375,-0.045257568359375,0.025915861129760742,-0.02565358579158783
1747571328856755000,3.9607548828125,-0.023702621459960938,0.011529803276062012,-0.009187519550323486
1747571328872746000,3.97674609375,-0.014145851135253906,0.016466140747070312,-0.016467757523059845
1747571328888706300,3.992706298828125,-0.04767799377441406,-0.004963040351867676,-0.021505087614059448
1747571328904697300,4.008697265625,-0.02136993408203125,0.011985301971435547,-0.028679601848125458
1747571328920657700,4.02465771484375,0.0049686431884765625,0.019159674644470215,-0.02390420436859131
1747571328936648700,4.040648681640625,-0.00940704345703125,0.031182527542114258,-0.01894237846136093
1747571328952609000,4.056609130859375,-0.026139259338378906,0.014242768287658691,0.00007665157318115234
1747571328968600000,4.07260009765625,0.007397651672363281,0.04042196273803711,-0.013907380402088165
1747571328984591000,4.088591064453125,-0.03091716766357422,0.026114463806152344,0.0027805864810943604
1747571329000551400,4.104551513671875,-0.018945693969726562,0.01656961441040039,-0.04304194450378418
1747571329016542500,4.12054248046875,-0.02851104736328125,0.023658037185668945,-0.023728102445602417
1747571329032502800,4.136502685546875,-0.023731231689453125,0.014124631881713867,-0.0211779922246933
1747571329048493800,4.152493896484375,-0.030907630920410156,-0.02183663845062256,-0.028303362429142
1747571329064454100,4.1684541015625,-0.021364212036132812,0.016657233238220215,-0.015847407281398773
1747571329080445200,4.184445068359375,-0.038177490234375,0.03856658935546875,-0.0611543282866478
1747571329096436000,4.20043603515625,-0.007040977478027344,0.009739279747009277,-0.04670102149248123
1747571329112396500,4.216396484375,0.00016117095947265625,0.007183670997619629,-0.017659999430179596
1747571329128387300,4.23238720703125,-0.023804664611816406,0.021698355674743652,-0.010314345359802246
1747571329144348000,4.248347900390625,-0.03579139709472656,0.009852051734924316,0.015851140022277832
1747571329160339000,4.2643388671875,-0.009472846984863281,0.0003712177276611328,-0.01977454125881195
1747571329176299300,4.28029931640625,-0.014242172241210938,0.005023360252380371,-0.029326580464839935
1747571329192290300,4.296290283203125,-0.04299354553222656,0.043503761291503906,-0.005611240863800049
1747571329208281000,4.312281005859375,0.019270896911621094,0.03860056400299072,-0.01038263738155365
1747571329224241700,4.32824169921875,-0.011827468872070312,-0.0166703462600708,-0.03166940063238144
1747571329240232400,4.344232421875,-0.0022211074829101562,0.01664900779724121,-0.022154435515403748
1747571329256193000,4.360193115234375,-0.023721694946289062,0.009156465530395508,-0.0031157732009887695
1747571329272183800,4.376183837890625,0.0049839019775390625,0.014051198959350586,-0.02882406860589981
1747571329288144400,4.392144287109375,-0.023694992065429688,0.011244654655456543,-0.04025241732597351
1747571329304135200,4.40813525390625,-0.047626495361328125,0.0015888214111328125,-0.030538715422153473
1747571329320126200,4.424126220703125,-0.009263038635253906,0.017949223518371582,-0.011331804096698761
1747571329336086500,4.44008642578125,-0.016402244567871094,0.012796401977539062,-0.017844945192337036
1747571329352077600,4.45607763671875,-0.04271411895751953,0.007814168930053711,0.0016674846410751343
1747571329368038100,4.4720380859375,-0.009184837341308594,0.0316997766494751,-0.0249582901597023
1747571329384029000,4.48802880859375,-0.01871490478515625,0.014594793319702148,-0.02947685867547989
1747571329400020000,4.50402001953125,-0.03305816650390625,0.026406526565551758,-0.038964077830314636
1747571329415980300,4.519980224609375,-0.0138702392578125,-0.002560734748840332,-0.012592919170856476
1747571329431971300,4.535971435546875,-0.021055221557617188,0.006993889808654785,-0.007484555244445801
1747571329447931600,4.551931640625,-0.02103900909423828,0.011662483215332031,-0.007348090410232544
1747571329463922700,4.567922607421875,-0.04257392883300781,-0.019564270973205566,-0.031154051423072815
1747571329479883000,4.583883056640625,-0.018648147583007812,-0.0003026723861694336,-0.02149583399295807
1747571329495874000,4.5998740234375,-0.02101898193359375,0.018677830696105957,-0.0022486448287963867
1747571329511834400,4.61583447265625,-0.02337360382080078,0.0016291141510009766,-0.01404096931219101
1747571329527825400,4.631825439453125,-0.006590843200683594,0.01823556423187256,-0.014155440032482147
1747571329543816400,4.64781640625,-0.016170501708984375,0.0038732290267944336,-0.02354561537504196
1747571329559776800,4.66377685546875,-0.020931243896484375,0.001287698745727539,-0.004431933164596558
1747571329575767800,4.679767822265625,-0.042473793029785156,-0.005944252014160156,-0.009055130183696747
1747571329591728000,4.69572802734375,-0.01615619659423828,0.0013802051544189453,-0.01883624494075775
1747571329607719200,4.71171923828125,-0.016202926635742188,0.013644814491271973,-0.023222588002681732
1747571329623679500,4.727679443359375,-0.011388778686523438,0.01824045181274414,-0.006311878561973572
1747571329639670500,4.74367041015625,-0.013734817504882812,0.0035518407821655273,0.0007161498069763184
1747571329655630800,4.759630859375,-0.020918846130371094,-0.010844230651855469,-0.003604322671890259
1747571329671622000,4.775621826171875,-0.032843589782714844,0.0007991790771484375,-0.0058567821979522705
1747571329687613000,4.791613037109375,-0.018482208251953125,-0.01116490364074707,-0.012802965939044952
1747571329703573200,4.8075732421875,-0.03045177459716797,0.010358333587646484,-0.012740351259708405
1747571329719564300,4.823564208984375,-0.011259078979492188,0.012489795684814453,-0.0007945895195007324
1747571329735524600,4.839524658203125,-0.030427932739257812,0.010148286819458008,0.0021733567118644714
1747571329751515600,4.855515625,-0.008837699890136719,0.005079865455627441,-0.009936444461345673
1747571329767476000,4.87147607421875,-0.04231548309326172,0.00241243839263916,-0.0028769224882125854
1747571329783467000,4.887467041015625,-0.004025459289550781,0.007306933403015137,-0.024266593158245087
1747571329799458000,4.9034580078125,-0.03520393371582031,-0.004291415214538574,-0.021904677152633667
1747571329815418400,4.91941845703125,-0.023247718811035156,-0.0018173456192016602,-0.002434566617012024
1747571329831409400,4.935409423828125,-0.040001869201660156,-0.004293084144592285,-0.011564746499061584
1747571329847369700,4.95136962890625,0.0031061172485351562,0.03392982482910156,-0.0020057931542396545
1747571329863360800,4.96736083984375,-0.03514385223388672,0.000010609626770019531,-0.01636257767677307
1747571329879351600,4.9833515625,0.007998466491699219,0.004487514495849609,-0.0021287575364112854
1747571329895312100,4.99931201171875,-0.025567054748535156,0.002411365509033203,-0.0212409645318985
1747571329911303000,5.015302978515625,-0.03274059295654297,0.004711151123046875,-0.02082262933254242
1747571329927294000,5.0312939453125,-0.027994155883789062,0.009795427322387695,-0.013733945786952972
1747571329943254300,5.047254150390625,-0.01602458953857422,0.0026062726974487305,-0.008696988224983215
1747571329959245300,5.063245361328125,-0.028006553649902344,0.005063056945800781,-0.001391291618347168
1747571329975206000,5.079205810546875,-0.020801544189453125,0.019264578819274902,-0.015639804303646088
1747571329991196700,5.09519677734375,-0.03033924102783203,0.021364450454711914,-0.010614223778247833
1747571330007187700,5.111187744140625,-0.030313491821289062,0.013958096504211426,0.006567619740962982
1747571330023148000,5.12714794921875,-0.05189704895019531,0.016596436500549316,-0.017253227531909943
1747571330039139000,5.14313916015625,-0.013590812683105469,0.002208232879638672,-0.00011860579252243042
1747571330055099400,5.159099365234375,-0.0015716552734375,0.006636500358581543,0.007301628589630127
1747571330071090400,5.17509033203125,-0.035071372985839844,0.011308789253234863,-0.0024389326572418213
1747571330087050800,5.19105078125,-0.011088371276855469,0.001469254493713379,-0.012278586626052856
1747571330103041800,5.207041748046875,-0.039849281311035156,0.011251330375671387,-0.00023922324180603027
1747571330119002000,5.223002197265625,-0.03742790222167969,-0.003287196159362793,-0.014666616916656494
1747571330134993200,5.2389931640625,-0.018280982971191406,0.0183030366897583,-0.012245506048202515
1747571330150953500,5.254953369140625,-0.018316268920898438,0.016141772270202637,-0.007389955222606659
1747571330166944500,5.270944580078125,-0.003955841064453125,0.0018135309219360352,-0.019339412450790405
1747571330182905000,5.286905029296875,-0.03739643096923828,-0.013098478317260742,-0.004916258156299591
1747571330198895900,5.302895751953125,0.0057525634765625,0.024825692176818848,0.011921539902687073
1747571330214856400,5.3188564453125,-0.034964561462402344,0.02734220027923584,-0.021731235086917877
1747571330230847200,5.33484716796875,-0.025377273559570312,-0.013452649116516113,-0.0071425661444664
1747571330246807800,5.350807861328125,-0.018197059631347656,-0.013442039489746094,-0.03577423840761185
1747571330262798600,5.366798583984375,-0.030179977416992188,0.0009953975677490234,-0.0021524429321289062
1747571330278789600,5.38278955078125,-0.0038051605224609375,-0.006427168846130371,-0.009632617235183716
1747571330294750000,5.39875,-0.001422882080078125,-0.01593947410583496,-0.035821713507175446
1747571330310741000,5.414740966796875,-0.013378143310546875,0.005491495132446289,0.002658568322658539
1747571330326701300,5.430701416015625,-0.027739524841308594,0.022217869758605957,-0.0020756796002388
1747571330342692400,5.4466923828125,-0.015735626220703125,0.021933674812316895,0.005741715431213379
1747571330358653000,5.46265283203125,-0.008558273315429688,-0.0019565820693969727,0.015211150050163269
1747571330374613200,5.47861328125,-0.030164718627929688,-0.030290961265563965,-0.00873526930809021
1747571330390604300,5.494604248046875,-0.02292919158935547,-0.009073615074157715,-0.00433976948261261
1747571330406595000,5.510594970703125,-0.01817798614501953,-0.0016037225723266602,0.002571575343608856
1747571330422555600,5.5265556640625,-0.01574230194091797,0.01008617877960205,0.002489648759365082
1747571330438546400,5.54254638671875,0.0033750534057617188,0.015114068984985352,0.00739288330078125
1747571330454507000,5.558507080078125,-0.027779579162597656,0.01535046100616455,0.007113851606845856
1747571330470497800,5.574497802734375,-0.023044586181640625,0.008549332618713379,-0.014589391648769379
1747571330486458400,5.590458251953125,-0.020669937133789062,-0.0032902956008911133,-0.007389582693576813
1747571330502418700,5.606418701171875,-0.01586627960205078,0.006195783615112305,-0.019572295248508453
1747571330518409700,5.62240966796875,-0.02303600311279297,0.01087963581085205,-0.00019835680723190308
1747571330534370000,5.6383701171875,-0.01587200164794922,0.008585095405578613,-0.021487735211849213
1747571330550361000,5.654361083984375,-0.020626068115234375,-0.0035969018936157227,0.009408451616764069
1747571330566321400,5.6703212890625,-0.023079872131347656,0.0063724517822265625,-0.026215694844722748
1747571330582312400,5.6863125,-0.039825439453125,0.006286740303039551,-0.0168096125125885
1747571330598272800,5.702272705078125,-0.02546405792236328,-0.01284635066986084,-0.019177399575710297
1747571330614233300,5.7182333984375,-0.015870094299316406,-0.0009889602661132812,-0.0072465091943740845
1747571330630224400,5.734224365234375,-0.015868186950683594,0.003805875778198242,-0.024288028478622437
1747571330646184700,5.750184814453125,-0.02784442901611328,0.006264090538024902,-0.012521803379058838
1747571330662145000,5.76614501953125,-0.02066326141357422,0.011051058769226074,-0.00047292560338974
1747571330678136000,5.782135986328125,-0.03743457794189453,0.001527547836303711,0.0023298487067222595
1747571330694096400,5.798096435546875,-0.0015544891357421875,0.006517887115478516,0.0001613721251487732
1747571330710087400,5.81408740234375,-0.0159149169921875,-0.010302543640136719,-0.00438111275434494
1747571330726048000,5.830048095703125,-0.018310546875,0.006506085395812988,-0.0071268826723098755
1747571330742038800,5.846038818359375,-0.01833343505859375,-0.026821494102478027,-0.0027313455939292908
1747571330757999400,5.861999267578125,-0.02074718475341797,0.030730247497558594,0.0024831146001815796
1747571330773959700,5.877959716796875,-0.0255126953125,0.025785088539123535,-0.007115364074707031
1747571330789950700,5.89395068359375,-0.02550792694091797,-0.005356192588806152,-0.002408072352409363
1747571330805911000,5.9099111328125,-0.015959739685058594,-0.0003336668014526367,-0.022000528872013092
1747571330821902000,5.925902099609375,-0.020753860473632812,0.016451597213745117,-0.0027157068252563477
1747571330837862400,5.9418623046875,-0.025490760803222656,-0.010243654251098633,-0.024257339537143707
1747571330853823000,5.957822998046875,-0.015915870666503906,-0.007818937301635742,-0.00046335160732269287
1747571330869813800,5.973813720703125,-0.008704185485839844,0.011160969734191895,-0.017495468258857727
1747571330885774300,5.9897744140625,-0.037453651428222656,0.0017067193984985352,-0.012602470815181732
1747571330901765000,6.00576513671875,-0.03269481658935547,0.023474574089050293,-0.017563149333000183
1747571330917725700,6.0217255859375,-0.03509521484375,-0.0076105594635009766,-0.01281023770570755
1747571330933686000,6.03768603515625,-0.03512763977050781,-0.00023484230041503906,-0.024394840002059937
1747571330949677000,6.053677001953125,-0.023163795471191406,0.01659226417541504,-0.010201491415500641
1747571330965667800,6.069667724609375,-0.02797222137451172,0.023913145065307617,-0.02217762917280197
1747571330981628400,6.08562841796875,-0.03514289855957031,-0.009672999382019043,0.003961041569709778
1747571330997619500,6.101619384765625,-0.02080059051513672,0.004850506782531738,-0.00804438441991806
1747571331013579800,6.117579833984375,0.007939338684082031,0.014394164085388184,-0.01078324019908905
1747571331029570800,6.13357080078125,-0.037550926208496094,-0.00717473030090332,-0.02725221961736679
1747571331045531100,6.14953125,-0.011241912841796875,0.009754300117492676,-0.015111289918422699
1747571331061522200,6.165522216796875,-0.025629043579101562,-0.011615753173828125,-0.022570349276065826
1747571331077482500,6.181482421875,-0.018425941467285156,0.01939404010772705,-0.0012287721037864685
1747571331093473500,6.1974736328125,-0.02321147918701172,-0.0045653581619262695,0.013042755424976349
1747571331109464300,6.21346435546875,-0.02322101593017578,0.02902519702911377,0.008126817643642426
1747571331125425000,6.2294248046875,-0.03038787841796875,-0.006991267204284668,-0.008687585592269897
1747571331141415700,6.245415771484375,-0.013627052307128906,0.012157917022705078,-0.020688295364379883
1747571331157376300,6.261376220703125,0.007905006408691406,0.0027191638946533203,-0.013847015798091888
1747571331173367000,6.277366943359375,-0.01602458953857422,0.007448911666870117,-0.014146082103252411
1747571331189327600,6.29332763671875,-0.03997230529785156,-0.006880760192871094,-0.0021518170833587646
1747571331205318700,6.309318603515625,-0.016086578369140625,0.010262489318847656,0.0004014745354652405
1747571331221309400,6.325309326171875,-0.025669097900390625,0.003132939338684082,-0.009370215237140656
1747571331237270000,6.34127001953125,-0.03287220001220703,0.008102893829345703,-0.009837031364440918
1747571331253260800,6.3572607421875,-0.008975028991699219,0.0012372732162475586,-0.01463674008846283
1747571331269251800,6.373251953125,-0.0041980743408203125,0.003703594207763672,-0.009731769561767578
1747571331285243000,6.389242919921875,-0.030529022216796875,0.013251900672912598,-0.021906457841396332
1747571331301233700,6.405233642578125,-0.013805389404296875,0.006351947784423828,-0.0054552555084228516
1747571331317194200,6.4211943359375,-0.011447906494140625,0.016190767288208008,-0.017552033066749573
1747571331333185000,6.43718505859375,-0.042634010314941406,0.007068514823913574,-0.010637663304805756
1747571331349176000,6.453176025390625,-0.06425285339355469,0.0027860403060913086,-0.0036254972219467163
1747571331365136400,6.469136474609375,0.007579803466796875,0.005152106285095215,-0.042134322226047516
1747571331381127400,6.48512744140625,-0.05710887908935547,0.0006856918334960938,-0.0015378594398498535
1747571331397118500,6.501118408203125,-0.02843475341796875,0.008291482925415039,-0.008995376527309418
1747571331413078800,6.517078857421875,-0.05005645751953125,-0.0103377103805542,0.0027859359979629517
1747571331429069800,6.53306982421875,-0.021360397338867188,0.01631772518157959,0.016289472579956055
1747571331445030100,6.549030029296875,-0.033344268798828125,-0.005121588706970215,-0.024603821337223053
1747571331461021200,6.565021240234375,-0.021396636962890625,0.002216935157775879,-0.0341821014881134
1747571331477012000,6.581011962890625,-0.00702667236328125,-0.004971504211425781,-0.03445182740688324
1747571331492972500,6.59697265625,-0.06201362609863281,0.044751644134521484,-0.03681075572967529
1747571331508963300,6.61296337890625,0.03366374969482422,-0.021706223487854004,-0.06021878868341446
1747571331524954400,6.628954345703125,-0.047820091247558594,0.014748096466064453,-0.01925867795944214
1747571331540915000,6.6449150390625,-0.05027484893798828,0.015129327774047852,0.005023747682571411
1747571331556905700,6.66090576171875,-0.03827857971191406,0.0101546049118042,-0.01626400649547577
1747571331572866300,6.6768662109375,-0.00001239776611328125,0.0008368492126464844,-0.004029452800750732
1747571331588857000,6.692857177734375,-0.004786491394042969,0.02228987216949463,-0.025618858635425568
1747571331604817700,6.708817626953125,-0.0023469924926757812,-0.011522412300109863,-0.016366511583328247
1747571331620808400,6.724808349609375,-0.028672218322753906,0.009951472282409668,0.0027777254581451416
1747571331636799500,6.740799560546875,-0.04070281982421875,0.010345697402954102,-0.013786770403385162
1747571331652759800,6.756759765625,-0.028726577758789062,0.003107428550720215,-0.0015543550252914429
1747571331668750800,6.772750732421875,0.004836082458496094,0.012399673461914062,-0.008905358612537384
1747571331684711200,6.788711181640625,-0.014341354370117188,-0.004191398620605469,-0.001773342490196228
1747571331700702200,6.8047021484375,0.07668495178222656,0.00984489917755127,-0.03524130582809448
1747571331716693200,6.820693359375,-0.01662731170654297,0.02617025375366211,-0.0016903877258300781
1747571331732653600,6.836653564453125,-0.004673004150390625,0.004709601402282715,-0.006162270903587341
1747571331748644600,6.85264453125,-0.054917335510253906,0.02361607551574707,-0.013225577771663666
1747571331764605000,6.86860498046875,-0.02371692657470703,0.013536572456359863,-0.006272837519645691
1747571331780596000,6.884595947265625,-0.0045318603515625,0.04919612407684326,-0.04897671937942505
1747571331796556300,6.900556396484375,-0.014088630676269531,-0.015586614608764648,-0.0442071333527565
1747571331812547300,6.91654736328125,-0.02606964111328125,-0.005950808525085449,0.0037864595651626587
1747571331828507600,6.932507568359375,-0.02608013153076172,0.01088416576385498,0.022939413785934448
1747571331844498700,6.948498779296875,-0.033270835876464844,-0.013035774230957031,0.030530110001564026
1747571331860459000,6.964458984375,-0.045269012451171875,-0.015267610549926758,-0.0004227384924888611
1747571331876450000,6.980449951171875,-0.0045642852783203125,0.01581430435180664,-0.012068338692188263
1747571331892410400,6.996410400390625,0.2109212875366211,0.01321101188659668,-0.04150158911943436
1747571331908401400,7.0124013671875,0.02422618865966797,0.010624051094055176,-0.00270264595746994
1747571331924392400,7.028392333984375,-0.04761791229248047,0.008385300636291504,-0.026935093104839325
1747571331940352800,7.044352783203125,-0.028429031372070312,0.01051938533782959,-0.005220972001552582
1747571331956343800,7.06034375,0.07452678680419922,-0.003986477851867676,-0.056790731847286224
1747571331972304100,7.07630419921875,-0.08837890625,0.02562713623046875,0.029710695147514343
1747571331988295200,7.092295166015625,0.012140274047851562,0.028316617012023926,-0.009015180170536041
1747571332004255500,7.10825537109375,-0.045287132263183594,0.016202449798583984,-0.021960139274597168
1747571332020246500,7.12424658203125,-0.016592979431152344,0.01900637149810791,-0.02366708219051361
1747571332036206800,7.140206787109375,-0.09802436828613281,0.019677162170410156,0.02398952841758728
1747571332052198000,7.156197998046875,-0.03584766387939453,-0.00837552547454834,-0.04006849229335785
1747571332068158200,7.172158203125,0.009595870971679688,-0.00555872917175293,-0.012303709983825684
1747571332084149200,7.188149169921875,0.026312828063964844,-0.0028791427612304688,-0.009887263178825378
1747571332100109800,7.20410986328125,0.06945419311523438,-0.003105759620666504,0.008386611938476562
1747571332116100600,7.2201005859375,-0.05262470245361328,0.020785212516784668,-0.0072534531354904175
1747571332132061200,7.236061279296875,0.03120899200439453,0.011323213577270508,0.003417178988456726
1747571332148052000,7.252052001953125,-0.14825820922851562,-0.013078689575195312,0.1281941533088684
1747571332164012500,7.268012451171875,-0.03348827362060547,0.011523246765136719,0.005171477794647217
1747571332180003300,7.28400341796875,0.033553123474121094,0.018470406532287598,-0.07891945540904999
1747571332195964000,7.2999638671875,-0.10772228240966797,0.018749237060546875,0.027218908071517944
1747571332211954700,7.31595458984375,-0.09817981719970703,0.0001068115234375,-0.004162311553955078
1747571332227915300,7.331915283203125,-0.026436805725097656,0.0010260343551635742,0.01645490527153015
1747571332243906000,7.347906005859375,-0.1964092254638672,-0.048966169357299805,-0.003952473402023315
1747571332259866600,7.36386669921875,-0.20357131958007812,0.02040684223175049,0.09096449613571167
1747571332275857700,7.379857666015625,0.14630126953125,0.4628934860229492,0.0848148912191391
1747571332291818000,7.39581787109375,-0.08803367614746094,0.1842658519744873,0.508735179901123
1747571332307809000,7.41180908203125,0.12748241424560547,0.34394240379333496,-0.025350168347358704
1747571332323769300,7.427769287109375,-0.04231834411621094,-0.021674633026123047,-0.24209102988243103
1747571332339760400,7.443760498046875,0.0058650970458984375,-0.05989682674407959,-0.14212985336780548
1747571332355720700,7.459720703125,-0.07047748565673828,-0.24289917945861816,-0.08704496920108795
1747571332371711700,7.475711669921875,0.08543586730957031,-0.5396566390991211,-0.27726250886917114
1747571332387672000,7.491672119140625,0.05169963836669922,0.03366100788116455,-0.016384676098823547
1747571332403663000,7.5076630859375,-0.044437408447265625,0.013636112213134766,-0.006962031126022339
1747571332419623400,7.52362353515625,-0.2194652557373047,-0.04150211811065674,0.09061774611473083
1747571332435614500,7.539614501953125,-0.1239614486694336,-0.011446237564086914,0.026419460773468018
1747571332451605200,7.555605224609375,0.2709054946899414,-0.03067028522491455,0.7638073563575745
1747571332467565800,7.57156591796875,0.4923086166381836,1.314895510673523,2.355454444885254
1747571332483556900,7.587556884765625,-0.01562976837158203,-1.0615860223770142,0.8329030275344849
1747571332499517200,7.60351708984375,-0.04914569854736328,-0.5677843689918518,-0.3624507188796997
1747571332515508200,7.61950830078125,0.07279586791992188,0.46932315826416016,-2.037778854370117
1747571332531468500,7.635468505859375,0.2878847122192383,-0.05096125602722168,-1.9273402690887451
1747571332547459600,7.65145947265625,-0.2606849670410156,-0.07757902145385742,0.18899771571159363
1747571332563420000,7.667419921875,-0.01916027069091797,-0.24152827262878418,0.8196842670440674
1747571332579411000,7.683410888671875,0.1697397232055664,-0.30318427085876465,2.0136520862579346
1747571332595401700,7.699401611328125,-0.18682479858398438,0.4492945671081543,1.6656367778778076
1747571332611362300,7.7153623046875,0.30678367614746094,-0.6267962455749512,0.27461522817611694
1747571332627353000,7.73135302734375,0.7690935134887695,-0.88698410987854,-1.7411144971847534
1747571332643344100,7.74734423828125,0.7009849548339844,0.7620686292648315,-2.067723274230957
1747571332659304700,7.7633046875,-0.38251304626464844,0.7967531681060791,-1.7497444152832031
1747571332675295500,7.77929541015625,0.07641315460205078,1.287523627281189,-1.1261544227600098
1747571332691256000,7.795256103515625,1.0104265213012695,0.5558605194091797,-0.09317606687545776
1747571332707246800,7.811246826171875,0.6385869979858398,0.059989333152770996,-0.00810176134109497
1747571332723238000,7.82723779296875,1.8449201583862305,0.7710376977920532,-0.10841542482376099
1747571332739198200,7.8431982421875,2.6337757110595703,1.4748488664627075,-0.3745107054710388
1747571332755189200,7.859189208984375,2.1280508041381836,0.6114000082015991,-0.4727288484573364
1747571332771149600,7.875149658203125,-1.178919792175293,-0.9475839138031006,-0.6075323820114136
1747571332787140600,7.891140625,-2.0121259689331055,-1.6120599508285522,0.30283641815185547
1747571332803131600,7.907131591796875,-2.3944449424743652,-2.2494399547576904,1.0550298690795898
1747571332819092000,7.923092041015625,-1.9938716888427734,-1.971571445465088,1.3843655586242676
1747571332835083000,7.9390830078125,0.41207027435302734,-1.0207715034484863,1.082733392715454
1747571332851073800,7.95507373046875,1.9130268096923828,-0.78513503074646,0.6836655139923096
1747571332867034400,7.971034423828125,2.992630958557129,-0.35044676065444946,0.025253772735595703
1747571332883025200,7.987025146484375,3.8555908203125,-0.052082955837249756,0.09949040412902832
1747571332899016200,8.00301611328125,4.128532409667969,-0.19997960329055786,0.5944240093231201
1747571332914976800,8.018976806640625,3.7628746032714844,-1.1999444961547852,1.1588501930236816
1747571332930967600,8.034967529296875,2.951937675476074,-1.896512746810913,1.2020998001098633
1747571332946958600,8.05095849609375,1.5085668563842773,-1.447662591934204,0.806790828704834
1747571332962919000,8.0669189453125,0.648900032043457,-1.3411459922790527,0.5829131603240967
1747571332978910000,8.082909912109375,0.3201770782470703,-1.355974793434143,0.36663269996643066
1747571332994901000,8.09890087890625,0.41322898864746094,-1.589257836341858,0.5469231605529785
1747571333010861300,8.114861328125,0.96746826171875,-1.4081240892410278,0.6553086042404175
1747571333026852400,8.130852294921874,1.1722993850708008,-1.32596755027771,0.24068880081176758
1747571333042843100,8.146843017578124,1.038747787475586,-1.3260637521743774,-0.5480948686599731
1747571333058834200,8.162834228515624,0.7787599563598633,-1.249422550201416,-0.9468122720718384
1747571333074794500,8.17879443359375,0.3905601501464844,-0.732451319694519,-0.7153973579406738
1747571333090785500,8.19478564453125,0.03813362121582031,-0.48149967193603516,-0.11743712425231934
1747571333106776600,8.210776611328125,0.23373794555664062,-0.5882282257080078,0.5697365403175354
1747571333122767400,8.226767333984375,0.28104496002197266,-0.7195063233375549,0.7933424115180969
1747571333138728000,8.24272802734375,-0.3607473373413086,-0.530807375907898,0.29117482900619507
1747571333154718700,8.25871875,-1.4252281188964844,-0.46040570735931396,-0.3545624613761902
1747571333170709800,8.274709716796876,-1.8381519317626953,-0.21952474117279053,-0.9827604293823242
1747571333186670000,8.290670166015625,-1.3858518600463867,0.050191283226013184,-0.831491231918335
1747571333202661000,8.3066611328125,-0.41919708251953125,0.4619237184524536,-0.5788280963897705
1747571333218652200,8.322652099609375,0.25217151641845703,0.5572829246520996,-0.3411140441894531
1747571333234643000,8.338642822265625,0.46625614166259766,0.0978618860244751,-0.3063381612300873
1747571333250603500,8.354603515625,-0.48659420013427734,-0.058727145195007324,-0.48127150535583496
1747571333266594300,8.37059423828125,-1.5329093933105469,-0.0077304840087890625,-0.9099364280700684
1747571333282585300,8.38658544921875,-1.6259126663208008,0.44498932361602783,-1.322786569595337
1747571333298576400,8.402576416015625,-1.7655563354492188,1.1692997217178345,-1.1590790748596191
1747571333314536700,8.41853662109375,-1.509261131286621,1.285131573677063,-0.6319820284843445
1747571333330527700,8.43452783203125,-1.0744781494140625,1.0549697875976562,-0.14867404103279114
1747571333346518500,8.4505185546875,-0.7493457794189453,1.0838685035705566,-0.2030506134033203
1747571333362479000,8.46647900390625,-0.9366912841796875,0.9570832252502441,-0.4491763710975647
1747571333378470000,8.482469970703125,-1.5509214401245117,1.093953013420105,-1.062373399734497
1747571333394461000,8.4984609375,-1.8232145309448242,1.3311675786972046,-1.460094928741455
1747571333410452000,8.514451904296875,-1.3400630950927734,1.6805230379104614,-1.5274311304092407
1747571333426412300,8.530412353515626,-0.6274251937866211,1.8022832870483398,-1.002873420715332
1747571333442403300,8.5464033203125,-0.21773719787597656,1.4602859020233154,-0.360179603099823
1747571333458394000,8.56239404296875,0.02299976348876953,1.4005343914031982,-0.270230770111084
1747571333474354700,8.578354736328125,-0.23347854614257812,1.470233678817749,-0.6003866791725159
1747571333490345500,8.594345458984375,-0.3571605682373047,1.506891131401062,-0.9653236269950867
1747571333506306000,8.61030615234375,-0.472259521484375,1.3819955587387085,-1.1552633047103882
1747571333522296800,8.626296875,-0.8662071228027344,1.1886590719223022,-0.8635281324386597
1747571333538287900,8.642287841796875,-1.0999431610107422,1.050362229347229,0.008855581283569336
1747571333554248400,8.65824853515625,-1.0244626998901367,0.8366671800613403,0.8206443786621094
1747571333570239200,8.6742392578125,-0.7417640686035156,0.5993843078613281,1.0818508863449097
1747571333586199800,8.69019970703125,-0.7172203063964844,0.42427802085876465,0.7039674520492554
1747571333602190600,8.706190673828125,-0.8230752944946289,0.36758220195770264,-0.004598021507263184
1747571333618151200,8.722151123046874,-0.8614368438720703,0.33024728298187256,-0.26865559816360474
1747571333634142000,8.738141845703124,-0.9390048980712891,0.18042027950286865,-0.08521389961242676
1747571333650102500,8.7541025390625,-0.8480463027954102,0.09947872161865234,0.10902833938598633
1747571333666093300,8.77009326171875,-0.5249090194702148,0.052504539489746094,0.2236434817314148
1747571333682054000,8.786053955078126,-0.34836292266845703,-0.1780383586883545,0.3718092441558838
1747571333698044700,8.802044677734376,-0.40655517578125,-0.4150214195251465,0.21570289134979248
1747571333714005200,8.818005126953125,-0.48162078857421875,-0.31749844551086426,-0.13275998830795288
1747571333729996300,8.833996337890625,-0.3947782516479492,-0.13268601894378662,-0.21592211723327637
1747571333745956600,8.84995654296875,-0.31493568420410156,-0.25256597995758057,-0.009222805500030518
1747571333761947600,8.86594775390625,-0.28859996795654297,-0.378170371055603,0.22542572021484375
1747571333777938400,8.8819384765625,0.008550643920898438,-0.3338661193847656,0.22976309061050415
1747571333793899000,8.89789892578125,0.18500137329101562,-0.4318631887435913,-0.011852681636810303
1747571333809889800,8.913889892578124,0.07272720336914062,-0.35762321949005127,-0.21941155195236206
1747571333825850400,8.929850341796875,-0.27237606048583984,-0.3597766160964966,-0.07709407806396484
1747571333841841200,8.945841064453125,-0.5332756042480469,-0.30309128761291504,0.1659570336341858
1747571333857832200,8.961832275390625,-0.4402322769165039,-0.2886439561843872,0.2649878263473511
1747571333873792500,8.97779248046875,-0.32158374786376953,-0.3516727685928345,0.24781513214111328
1747571333889783600,8.993783447265624,-0.4421243667602539,-0.3274039030075073,0.26400887966156006
1747571333905744100,9.009744140625,-0.4185152053833008,-0.18907880783081055,0.17325347661972046
1747571333921735000,9.02573486328125,-0.3618478775024414,-0.13733577728271484,-0.0700000524520874
1747571333937695500,9.041695556640626,0.06157207489013672,-0.08513784408569336,-0.30773797631263733
1747571333953686300,9.057686279296876,0.2029132843017578,-0.05677676200866699,0.027163922786712646
1747571333969677300,9.07367724609375,-0.011275291442871094,-0.01700878143310547,0.22886133193969727
1747571333985637600,9.0896376953125,-0.1479482650756836,-0.054398298263549805,0.034484803676605225
1747571334001628700,9.105628662109375,-0.11685371398925781,-0.061003804206848145,-0.19602999091148376
1747571334017619700,9.12161962890625,-0.2548866271972656,-0.112640380859375,-0.021906793117523193
1747571334033580000,9.137580078125,-0.13756561279296875,0.052605271339416504,0.22358006238937378
1747571334049571000,9.153571044921875,0.010875701904296875,-0.055864930152893066,0.43149518966674805
1747571334065561900,9.169561767578125,0.370269775390625,0.03445470333099365,0.11996972560882568
1747571334081522400,9.1855224609375,0.5406427383422852,0.056046485900878906,-0.272768497467041
1747571334097513200,9.20151318359375,0.3365144729614258,0.093941330909729,-0.7752894163131714
1747571334113504300,9.217504150390624,-0.032776832580566406,-0.0611797571182251,-0.6087009310722351
1747571334129464600,9.233464599609375,-0.3233823776245117,-0.04036903381347656,-0.5536537170410156
1747571334145455600,9.24945556640625,-0.35622692108154297,0.0754082202911377,-0.33714038133621216
1747571334161446700,9.26544677734375,0.00016117095947265625,0.0038574934005737305,-0.02510833740234375
1747571334177407000,9.281406982421874,0.22884273529052734,-0.19658195972442627,0.4073624312877655
1747571334193398000,9.29739794921875,0.4346036911010742,-0.30715668201446533,0.19934764504432678
1747571334209388800,9.313388916015626,0.536137580871582,-0.07176125049591064,0.2558976709842682
1747571334225349400,9.329349365234375,0.4910612106323242,-0.2720332145690918,0.4440510869026184
1747571334241340200,9.345340087890625,0.5028400421142578,-0.1953432559967041,0.37269777059555054
1747571334257331200,9.361331298828125,0.7367496490478516,-0.04236114025115967,0.19228076934814453
1747571334273322200,9.377322265625,0.2332172393798828,1.1231493949890137,-1.0348293781280518
1747571334289282600,9.393282470703125,-0.6577253341674805,-0.10709083080291748,-0.6173032522201538
1747571334305273600,9.409273681640625,-0.7381620407104492,-0.4136406183242798,-0.6862517595291138
1747571334321234000,9.42523388671875,-0.8607568740844727,0.22575914859771729,-0.23166196048259735
1747571334337225000,9.441224853515624,-0.6907243728637695,-0.6102319955825806,0.27603065967559814
1747571334353216000,9.457216064453124,-0.11957931518554688,-0.42651093006134033,-0.19485124945640564
1747571334369176300,9.47317626953125,0.5377750396728516,0.20695292949676514,0.850212037563324
1747571334385167400,9.48916748046875,0.3007955551147461,-0.2953052520751953,1.7878903150558472
1747571334401158100,9.505158203125,-0.18767070770263672,-0.6543424129486084,0.948110818862915
1747571334417118700,9.52111865234375,-0.1862621307373047,-0.8709750175476074,-1.1130977869033813
1747571334433109500,9.537109619140624,-0.5407943725585938,0.3380829095840454,-2.280573844909668
1747571334449070000,9.553070068359375,-0.11863231658935547,0.43090903759002686,-0.583462119102478
1747571334465060900,9.569060791015625,0.9156465530395508,-0.014350414276123047,0.9581176042556763
1747571334481052000,9.585052001953125,1.5302190780639648,-0.6225679516792297,1.3348137140274048
1747571334497012200,9.60101220703125,0.24335002899169922,-0.20769333839416504,0.22075504064559937
1747571334513003300,9.617003173828126,-0.7705154418945312,0.402532696723938,-0.669410228729248
1747571334528994300,9.632994384765626,-1.2867231369018555,0.36500251293182373,-0.9747778177261353
1747571334544954600,9.64895458984375,-0.731745719909668,-0.014489412307739258,-0.3098377287387848
1747571334560945700,9.664945556640625,0.4509601593017578,-0.214300274848938,0.6286805868148804
1747571334576936400,9.6809365234375,0.9915981292724609,-0.5132119655609131,0.8369486927986145
1747571334592897000,9.69689697265625,0.5352458953857422,0.24922871589660645,0.18745321035385132
1747571334608887800,9.7128876953125,0.12611103057861328,0.7424237728118896,-0.9791907072067261
1747571334624848400,9.728848388671874,0.0478057861328125,-0.10746562480926514,-1.104776382446289
1747571334640839400,9.74483935546875,-0.034816741943359375,-0.7543433308601379,-1.2121198177337646
1747571334656799700,9.7607998046875,-0.51776123046875,0.869476318359375,0.2456367015838623
1747571334672790800,9.776790771484375,0.4523038864135742,-0.31065618991851807,1.5117136240005493
1747571334688751000,9.792751220703124,0.8524951934814453,-0.5581293106079102,0.8648974895477295
1747571334704742100,9.8087421875,0.03411674499511719,0.01148676872253418,-0.20430397987365723
1747571334720702500,9.824702392578125,-0.7444362640380859,0.22754061222076416,-0.9615814685821533
1747571334736693500,9.840693603515625,-0.31085681915283203,-0.6957167983055115,-2.446493625640869
1747571334752684300,9.856684326171875,-1.8864479064941406,0.6834502220153809,-1.318021535873413
1747571334768644900,9.872644775390626,-0.6826677322387695,-0.2802950143814087,-0.20921093225479126
1747571334784635600,9.8886357421875,-0.16743755340576172,0.04975712299346924,-0.16245749592781067
1747571334800596200,9.90459619140625,0.4279050827026367,0.09820020198822021,0.4316500127315521
1747571334816587300,9.920587158203125,0.925445556640625,-0.2991950511932373,1.1080474853515625
1747571334832578000,9.936578125,0.38355255126953125,-0.30126380920410156,0.6560419201850891
1747571334848538600,9.95253857421875,-0.1954030990600586,0.1392902135848999,0.06395772099494934
1747571334864529400,9.968529296875,0.38443756103515625,0.2023773193359375,-0.6474236249923706
1747571334880520400,9.9845205078125,-0.5675239562988281,0.22540533542633057,-0.9762676954269409
1747571334896511500,10.000511474609375,-0.03360939025878906,0.3324059247970581,-0.6786297559738159
1747571334912502300,10.016502197265625,0.42167186737060547,0.21425962448120117,-0.21625126898288727
1747571334928493300,10.032493408203125,0.6306619644165039,-0.004322171211242676,0.0826459676027298
1747571334944453600,10.04845361328125,0.7343044281005859,-0.09444999694824219,0.013136856257915497
1747571334960444700,10.064444580078124,0.4251117706298828,-0.07254564762115479,-0.08635014295578003
1747571334976405000,10.080405029296875,0.05242443084716797,-0.022045373916625977,0.09627071022987366
1747571334992396000,10.09639599609375,-0.2398977279663086,-0.18847060203552246,-0.10538500547409058
1747571335008387000,10.112386962890625,-0.3023691177368164,0.05948007106781006,0.058763451874256134
1747571335024347400,10.128347412109376,-0.24183273315429688,-0.017775893211364746,0.06980482488870621
1747571335040338400,10.14433837890625,0.023046493530273438,-0.004921555519104004,0.04230405390262604
1747571335056298800,10.160298828125,0.08409595489501953,-0.1586982011795044,-0.05698107182979584
1747571335072289800,10.176289794921875,-0.7132186889648438,0.02938830852508545,-0.16309337317943573
1747571335088250000,10.19225,-0.8725814819335938,0.06866967678070068,-0.3601542115211487
1747571335104241200,10.2082412109375,-0.6304216384887695,-0.02838611602783203,-0.48165953159332275
1747571335120232000,10.22423193359375,-0.614201545715332,0.06747817993164062,-0.5475434064865112
1747571335136192500,10.240192626953124,-0.6195573806762695,0.1002732515335083,-0.5233935117721558
1747571335152183300,10.256183349609374,-0.08239936828613281,-0.17602825164794922,-0.10785835236310959
1747571335168144000,10.272143798828125,0.2963409423828125,-0.4289274215698242,0.239857017993927
1747571335184135000,10.288135009765625,0.38681793212890625,-0.16339099407196045,-0.030643492937088013
1747571335200095200,10.30409521484375,0.5996084213256836,-0.09953546524047852,-0.10391737520694733
1747571335216086300,10.320086181640624,0.14668750762939453,0.11574816703796387,-0.08467176556587219
1747571335232046600,10.336046630859375,-0.3617115020751953,0.0248415470123291,-0.18187756836414337
1747571335248037600,10.35203759765625,-0.8817138671875,0.010452032089233398,-0.4970671534538269
1747571335263998000,10.367998046875,-0.755671501159668,-0.11069715023040771,-0.40779396891593933
1747571335279989000,10.383989013671876,-0.2695198059082031,0.863020658493042,-0.30174481868743896
1747571335295949300,10.39994921875,-0.10416126251220703,-0.2874182462692261,0.5918577313423157
1747571335311940400,10.4159404296875,0.5427722930908203,-0.5320061445236206,0.3232790231704712
1747571335327900700,10.431900634765626,0.4266319274902344,0.2333970069885254,-0.582872748374939
1747571335343891700,10.4478916015625,-0.04500865936279297,0.13717246055603027,-0.8023228049278259
1747571335359852000,10.46385205078125,-0.0032558441162109375,-0.002867579460144043,-0.397538423538208
1747571335375843000,10.479843017578125,0.28295135498046875,-0.40405845642089844,0.6867589950561523
1747571335391834000,10.495834228515625,0.3755683898925781,-0.4403268098831177,1.2863391637802124
1747571335407794400,10.51179443359375,0.32622623443603516,-0.07031738758087158,0.7179675102233887
1747571335423785500,10.527785400390625,-0.7216310501098633,-0.20147907733917236,0.7691830396652222
1747571335439745800,10.543745849609374,-1.1909570693969727,-0.6538618206977844,0.5809018611907959
1747571335455736800,10.55973681640625,-1.3200139999389648,-0.05697214603424072,-0.24967461824417114
1747571335471727600,10.5757275390625,-1.9786324501037598,0.3784729242324829,-1.3396830558776855
1747571335487688200,10.591688232421875,-0.4885683059692383,0.0639423131942749,-0.26531875133514404
1747571335503679000,10.607678955078125,0.044345855712890625,-0.48911064863204956,0.7556391954421997
1747571335519639600,10.6236396484375,0.4786186218261719,-0.3786799907684326,0.7719234228134155
1747571335535630600,10.639630615234376,0.6089353561401367,-0.23743051290512085,-0.05888491868972778
1747571335551591000,10.6555908203125,0.1029214859008789,-0.0033752918243408203,-0.40842002630233765
1747571335567582000,10.67158203125,-0.013457298278808594,0.30938518047332764,-0.028786122798919678
1747571335583572700,10.68757275390625,0.30293846130371094,-0.0841379165649414,0.11307382583618164
1747571335599533300,10.703533203125,0.6565446853637695,-0.19593840837478638,0.3503103256225586
1747571335615524000,10.719524169921876,0.5433559417724609,0.025317668914794922,0.22679758071899414
1747571335631484700,10.735484619140625,0.1378936767578125,-0.0283278226852417,0.024218618869781494
1747571335647475500,10.751475341796874,-0.5772686004638672,0.1921955943107605,-0.21227705478668213
1747571335663436000,10.76743603515625,-0.4334220886230469,0.2241605520248413,-0.1624569594860077
1747571335679426800,10.7834267578125,0.12876510620117188,0.03218799829483032,0.03633749485015869
1747571335695417900,10.79941796875,0.25637054443359375,-0.09129607677459717,0.14694833755493164
1747571335711378400,10.81537841796875,-0.09127044677734375,0.08548760414123535,-0.17897272109985352
1747571335727369200,10.831369140625,-0.24010944366455078,-0.027924537658691406,-0.37365350127220154
1747571335743329800,10.847329833984375,-0.0996255874633789,0.07171875238418579,-0.34408265352249146
1747571335759320600,10.863320556640625,0.1799306869506836,-0.018111586570739746,0.1110907793045044
1747571335775311600,10.8793115234375,0.05842876434326172,-0.17037737369537354,0.46080103516578674
1747571335791302700,10.895302734375,0.16239261627197266,-0.007482171058654785,-0.13541674613952637
1747571335807263000,10.911262939453126,0.07287216186523438,0.12868082523345947,-0.6048734188079834
1747571335823254000,10.92725390625,-0.14066219329833984,0.2704542279243469,-0.6385889649391174
1747571335839214300,10.94321435546875,0.07162189483642578,-0.019840896129608154,-0.2327801138162613
1747571335855205400,10.959205322265625,0.046767234802246094,0.0176541805267334,-0.07779216766357422
1747571335871196200,10.975196044921875,0.20615863800048828,-0.024756908416748047,0.0020886659622192383
1747571335887156700,10.99115673828125,-0.1174306869506836,-0.052698493003845215,0.11437398195266724
1747571335903147500,11.0071474609375,-0.3594388961791992,-0.08751934766769409,-0.05154940485954285
1747571335919108000,11.023108154296875,-0.2768831253051758,-0.030579864978790283,-0.24199903011322021
1747571335935099000,11.039098876953124,0.0301971435546875,0.036389291286468506,-0.39054301381111145
1747571335951090000,11.05508984375,0.1363210678100586,0.06849533319473267,-0.2451726645231247
1747571335967050200,11.07105029296875,0.32182788848876953,-0.10852843523025513,0.08232688903808594
1747571335983041300,11.087041259765625,0.22765827178955078,-0.01122969388961792,0.026749063283205032
1747571335999032300,11.1030322265625,0.14577579498291016,-0.022388815879821777,-0.1964195966720581
1747571336014992600,11.11899267578125,0.109527587890625,0.042528748512268066,-0.22549888491630554
1747571336030983700,11.134983642578124,0.0805044174194336,0.09905225038528442,-0.2287341207265854
1747571336046974500,11.150974365234376,-0.05840015411376953,0.03464818000793457,-0.014481192454695702
1747571336062935000,11.16693505859375,-0.1947956085205078,-0.03328126668930054,0.17893171310424805
1747571336078926000,11.182926025390625,-0.15900516510009766,-0.04996210336685181,0.16096147894859314
1747571336094916900,11.198916748046875,-0.17838573455810547,-0.03163236379623413,-0.08722757548093796
1747571336110877400,11.21487744140625,-0.2529125213623047,0.0979238748550415,-0.25936028361320496
1747571336126868200,11.2308681640625,-0.4783649444580078,0.21483570337295532,-0.43588873744010925
1747571336142859300,11.246859375,-0.29479503631591797,0.01283961534500122,-0.19540715217590332
1747571336158819600,11.262819580078125,0.20663833618164062,-0.1135779619216919,0.13900937139987946
1747571336174810600,11.278810546875,0.6028900146484375,-0.26586514711380005,0.6868870258331299
1747571336190801700,11.2948017578125,0.4828042984008789,-0.28938814997673035,0.3547460436820984
1747571336206792400,11.31079248046875,0.45420265197753906,-0.05381777882575989,0.14036452770233154
1747571336222753000,11.3267529296875,0.09575271606445312,-0.03839850425720215,-0.17029716074466705
1747571336238743800,11.342743896484375,-0.26706504821777344,0.03996920585632324,-0.26657378673553467
1747571336254734800,11.35873486328125,-0.3595094680786133,0.04234886169433594,-0.2110780030488968
1747571336270726000,11.374725830078125,-0.31816577911376953,0.10703527927398682,-0.4376906156539917
1747571336286686200,11.390686279296874,-0.3941612243652344,0.02126699686050415,-0.2847711443901062
1747571336302677200,11.40667724609375,-0.41048145294189453,-0.22890150547027588,0.22161349654197693
1747571336318637600,11.422637451171875,-0.16639137268066406,-0.15537065267562866,0.4821285009384155
1747571336334628600,11.438628662109375,-0.2364521026611328,-0.11017924547195435,0.08680698275566101
1747571336350619400,11.454619384765625,0.05826759338378906,0.12086483836174011,-0.4648802578449249
1747571336366580000,11.470580078125,0.43646812438964844,0.0465543270111084,-0.43708670139312744
1747571336382570800,11.48657080078125,0.6863565444946289,-0.0691365897655487,0.21530911326408386
1747571336398561800,11.502561767578126,0.6501750946044922,-0.03702813386917114,0.3859333097934723
1747571336414522000,11.518522216796875,0.6021461486816406,-0.06496784090995789,0.2720519006252289
1747571336430513200,11.53451318359375,0.22350120544433594,0.027951478958129883,-0.03427928686141968
1747571336446504200,11.550504150390625,0.024234771728515625,0.1731005311012268,-0.25904685258865356
1747571336462495000,11.566494873046874,0.08129119873046875,0.043943852186203,-0.012839332222938538
1747571336478455600,11.58245556640625,0.1004476547241211,0.02446824312210083,0.1083880364894867
1747571336494446300,11.5984462890625,0.15807342529296875,-0.043875426054000854,0.049827322363853455
1747571336510437400,11.614437255859375,0.07683658599853516,0.14688646793365479,-0.10055434703826904
1747571336526398000,11.63039794921875,0.05778312683105469,-0.0401080846786499,-0.27662020921707153
1747571336542388700,11.646388671875,0.060303688049316406,-0.07515838742256165,-0.5320712924003601
1747571336558379800,11.6623798828125,-0.03269386291503906,0.17335405945777893,-0.24246922135353088
1747571336574370600,11.67837060546875,0.12854862213134766,0.005533546209335327,0.31678563356399536
1747571336590331100,11.6943310546875,-0.001880645751953125,-0.09158560633659363,0.3400071859359741
1747571336606322200,11.710322265625,-0.21373558044433594,-0.10304120182991028,0.02004370093345642
1747571336622313000,11.72631298828125,-0.4116783142089844,-0.08471482992172241,0.08652813732624054
1747571336638304000,11.742303955078125,-0.4762706756591797,-0.16496634483337402,0.09192471206188202
1747571336654264300,11.758264404296876,-0.3238039016723633,-0.18246236443519592,0.05886344611644745
1747571336670255400,11.77425537109375,-0.07827186584472656,-0.20938178896903992,-0.09745209664106369
1747571336686246400,11.790246337890625,0.06937313079833984,-0.0614754855632782,-0.11297110468149185
1747571336702206700,11.806206787109375,0.32991886138916016,-0.0401780903339386,-0.019678868353366852
1747571336718197800,11.82219775390625,-0.00487518310546875,-0.07778099179267883,0.18857651948928833
1747571336734188500,11.8381884765625,-0.23155784606933594,-0.21316730976104736,0.04763460159301758
1747571336750179600,11.8541796875,-0.39168453216552734,0.18183821439743042,-0.8880400061607361
1747571336766140000,11.870139892578125,0.05080413818359375,0.05922466516494751,-1.0935144424438477
1747571336782131000,11.886130859375,0.07671451568603516,0.11222675442695618,-0.44262170791625977
1747571336798122000,11.9021220703125,0.05916118621826172,-0.07030132412910461,-0.004697756841778755
1747571336814082300,11.918082275390624,0.16356945037841797,-0.37597864866256714,0.5531684160232544
1747571336830073300,11.9340732421875,-0.052356719970703125,-0.5552997589111328,0.4124309718608856
1747571336846064000,11.950064208984376,-0.38530540466308594,-0.22556936740875244,0.1462916135787964
1747571336862024700,11.966024658203125,-0.691986083984375,-0.3003521263599396,-0.24089860916137695
1747571336878015500,11.982015380859375,-0.39368343353271484,-0.07162472605705261,0.18794254958629608
1747571336894006500,11.998006591796875,0.11250591278076172,-0.09190654754638672,0.6680445671081543
1747571336909966800,12.013966796875,-0.2808952331542969,-0.20790547132492065,0.7729793787002563
1747571336925958000,12.0299580078125,-0.9202671051025391,-0.09489810466766357,0.7883504033088684
1747571336941949000,12.045948974609376,-1.360957145690918,-0.054474860429763794,0.97110915184021
1747571336957909200,12.0619091796875,-1.3039178848266602,-0.08653225004673004,0.9129352569580078
1747571336973900300,12.077900390625,-0.7145681381225586,0.03800949454307556,0.7745870351791382
1747571336989860600,12.093860595703125,0.9085817337036133,-0.7059650421142578,1.750112771987915
1747571337005851600,12.1098515625,1.8863048553466797,-0.8300385475158691,2.237199306488037
1747571337021812000,12.12581201171875,0.7487516403198242,-0.7288733720779419,0.44033700227737427
1747571337037803000,12.141802978515624,-0.9328203201293945,0.23784951865673065,-1.1709668636322021
1747571337053794000,12.1577939453125,-1.6383161544799805,0.6151524782180786,-1.4109370708465576
1747571337069754400,12.17375439453125,-1.5259342193603516,0.7015552520751953,-0.8488120436668396
1747571337085745400,12.189745361328125,-0.3958473205566406,-0.48101499676704407,0.07387036085128784
1747571337101705700,12.205705810546876,1.6219701766967773,-0.7334276437759399,0.7864387631416321
1747571337117696800,12.22169677734375,1.8758363723754883,-0.20378418266773224,0.7377956509590149
1747571337133657000,12.237656982421875,0.9958410263061523,-0.2662861943244934,0.2780977487564087
1747571337149648100,12.253648193359375,0.3184661865234375,-0.12532323598861694,-0.8135291934013367
1747571337165608400,12.2696083984375,-0.275543212890625,0.5764188766479492,-1.4700679779052734
1747571337181599500,12.285599609375,-0.026030540466308594,0.3763323426246643,-1.049988031387329
1747571337197590300,12.30159033203125,0.32529735565185547,0.047631919384002686,-0.22670090198516846
1747571337213550800,12.31755078125,0.532475471496582,-0.23546381294727325,0.8562719821929932
1747571337229542000,12.3335419921875,0.3830900192260742,-0.21384645998477936,0.9450106024742126
1747571337245532700,12.34953271484375,-0.0038928985595703125,-0.11786918342113495,0.16513583064079285
1747571337261493200,12.3654931640625,-0.3173837661743164,0.08692768216133118,-0.46619343757629395
1747571337277484000,12.381484130859375,-0.4601564407348633,0.203696608543396,-0.821932852268219
1747571337309435400,12.413435302734374,-0.04302024841308594,0.07541362941265106,-0.3218909502029419
1747571337325426400,12.429426513671874,0.2812461853027344,-0.13031676411628723,0.29487794637680054
1747571337341386800,12.44538671875,0.6214170455932617,-0.23966637253761292,0.7388399243354797
1747571337357377800,12.461377685546875,0.5421667098999023,-0.25978416204452515,0.41035759449005127
1747571337373368800,12.477368896484375,-0.029392242431640625,0.07499854266643524,-0.3114393353462219
1747571337389329200,12.4933291015625,-0.5226593017578125,0.15653075277805328,-0.6433053016662598
1747571337405289500,12.50928955078125,-0.6058206558227539,0.23079702258110046,-0.5995338559150696
1747571337421280500,12.525280517578125,-0.1485767364501953,0.09611067175865173,-0.17614030838012695
1747571337437241000,12.541240966796876,0.5231122970581055,-0.015615999698638916,0.09577500820159912
1747571337453231900,12.55723193359375,0.7559404373168945,-0.10723727941513062,0.2599276304244995
1747571337469192400,12.5731923828125,0.4089927673339844,-0.06020238995552063,0.13679641485214233
1747571337485183200,12.589183349609375,-0.007119178771972656,-0.1072520911693573,-0.07472199201583862
1747571337501174300,12.60517431640625,-0.21205997467041016,-0.0010519921779632568,-0.3547830581665039
1747571337517134600,12.621134521484375,-0.29213523864746094,0.1057356745004654,-0.45044153928756714
1747571337533125600,12.637125732421875,-0.1826639175415039,0.05643892288208008,-0.34158849716186523
1747571337549086000,12.6530859375,0.09429264068603516,0.01727062463760376,-0.1309947967529297
1747571337565077000,12.669076904296874,0.26497840881347656,-0.11631888151168823,0.14597350358963013
1747571337581037300,12.685037353515625,0.34444332122802734,-0.08017441630363464,0.07968902587890625
1747571337597089500,12.701089599609375,0.28087520599365234,-0.10446003079414368,0.03424668312072754
1747571337613145900,12.717145751953124,0.2992057800292969,-0.07877489924430847,0.07489293813705444
1747571337629106200,12.733106201171875,0.3502321243286133,-0.01976311206817627,0.2094321846961975
1747571337645097200,12.74909716796875,0.3432197570800781,0.07522040605545044,0.25234001874923706
1747571337661057500,12.7650576171875,0.2353496551513672,0.24486607313156128,0.32853466272354126
1747571337677109500,12.781109619140626,-0.19681739807128906,-0.11028540134429932,0.07211428880691528
1747571337693100500,12.7971005859375,-0.4369697570800781,-0.5186586976051331,-0.2169893980026245
1747571337709091300,12.81309130859375,-0.28879451751708984,-0.552190363407135,-0.14231783151626587
1747571337725052000,12.829052001953125,-0.37495899200439453,-0.6786199808120728,0.2391604781150818
1747571337741042700,12.845042724609375,-0.2890939712524414,-0.5714070200920105,0.2961593270301819
1747571337757003300,12.861003173828125,-0.4783601760864258,-0.4438117444515228,-0.05079007148742676
1747571337772994000,12.876994140625,-0.2452068328857422,-0.41934341192245483,-0.2855297923088074
1747571337788954600,12.89295458984375,0.1853923797607422,-0.41707032918930054,-0.3424403667449951
1747571337804945400,12.9089453125,0.3179359436035156,-0.478558212518692,-0.6946535110473633
1747571337820906000,12.924906005859375,-0.35766029357910156,-0.5494836568832397,-0.9014906883239746
1747571337836866300,12.9408662109375,0.04175090789794922,-0.5035969614982605,-1.428824543952942
1747571337852857300,12.956857421875,0.49713993072509766,-0.21396100521087646,-1.8262276649475098
1747571337868817700,12.972817626953125,0.27575111389160156,-0.13461625576019287,-1.6839865446090698
1747571337884808700,12.98880859375,0.01877880096435547,-0.49279916286468506,-1.675594449043274
1747571337900769000,13.00476904296875,0.034699440002441406,-0.7984797954559326,-1.5414319038391113
1747571337916760000,13.020760009765626,0.10373878479003906,-0.6706947088241577,-1.1898934841156006
1747571337932720400,13.036720458984375,0.06374168395996094,-1.0569336414337158,-0.4461674690246582
1747571337948711400,13.05271142578125,-0.1326303482055664,-1.7251299619674683,-0.3843226432800293
1747571337964671700,13.068671630859376,-0.47941112518310547,-1.8107612133026123,-0.4951152801513672
1747571337980662800,13.084662841796876,-0.9570465087890625,-1.0994038581848145,-0.8352963924407959
1747571337996623000,13.100623046875,-0.7157697677612305,-0.7806339263916016,-0.7023026943206787
1747571338012675000,13.116675048828125,-0.6445398330688477,-1.271157145500183,-0.6930475234985352
1747571338028635600,13.1326357421875,-0.056029319763183594,-1.4483282566070557,-0.8603873252868652
1747571338044626400,13.14862646484375,0.39937305450439453,-2.207566261291504,-0.41417884826660156
1747571338060587000,13.1645869140625,0.8205528259277344,-2.5283007621765137,-0.11037588119506836
1747571338076577800,13.180577880859374,1.3858251571655273,-1.8058249950408936,0.017366409301757812
1747571338092538400,13.196538330078125,1.1226062774658203,-1.3311026096343994,0.3278083801269531
1747571338108529200,13.212529052734375,0.9334163665771484,-0.8320339918136597,0.7412605285644531
1747571338124489700,13.22848974609375,1.0693440437316895,-0.22134017944335938,0.6726078987121582
1747571338148506600,13.252506591796875,1.7822089195251465,-0.6398153305053711,-0.13201475143432617
1747571338164497400,13.268497314453125,-0.10426998138427734,-0.7377159595489502,-0.6527247428894043
1747571338180458000,13.2844580078125,-0.5036320686340332,-0.9607129096984863,-0.3061957359313965
1747571338196448800,13.30044873046875,-0.8939666748046875,-0.7571954727172852,0.32643842697143555
1747571338220404700,13.32440478515625,0.1017756462097168,-0.5848813056945801,0.7879981994628906
1747571338244360700,13.348360595703125,0.1766057014465332,-1.166536569595337,1.022752285003662
1747571338260321000,13.364321044921875,0.29023027420043945,-2.132387161254883,1.4105253219604492
1747571338276281600,13.380281494140625,0.22499942779541016,-2.1937639713287354,1.6239924430847168
1747571338292272400,13.3962724609375,1.0276055335998535,-1.2583491802215576,1.8149223327636719
1747571338308233000,13.41223291015625,1.0540575981140137,-0.40439391136169434,1.8722405433654785
1747571338324193300,13.428193359375,0.7233138084411621,-0.29002904891967773,2.417675495147705
1747571338340184300,13.444184326171875,-0.5847611427307129,-0.1675429344177246,2.883721351623535
1747571338356144600,13.46014453125,-2.0395445823669434,-0.27687644958496094,3.060453414916992
1747571338372105200,13.476105224609375,-2.4817824363708496,-0.11569738388061523,3.1316471099853516
1747571338388096000,13.492095947265625,-2.8114967346191406,0.377500057220459,2.864546298980713
1747571338404056600,13.508056640625,-2.637600898742676,0.32419729232788086,2.2933149337768555
1747571338420017000,13.524016845703125,-2.487792491912842,-0.25037431716918945,1.6230559349060059
1747571338436008000,13.540008056640625,-2.8947854042053223,-1.2759981155395508,0.9749054908752441
1747571338451968300,13.55596826171875,-4.069261074066162,-0.8625102043151855,0.3321967124938965
1747571338467928600,13.571928466796875,-5.416083812713623,-0.9377641677856445,-0.38280344009399414
1747571338483889200,13.58788916015625,-5.4160614013671875,-1.0913381576538086,-1.0756983757019043
1747571338499880000,13.6038798828125,-4.701705455780029,-1.109522819519043,-1.7669358253479004
1747571338515840500,13.619840576171875,-3.590974807739258,-1.0111823081970215,-2.407383441925049
1747571338531800800,13.63580078125,-1.787142038345337,-1.1257891654968262,-3.4548139572143555
1747571338547792000,13.6517919921875,-0.35633277893066406,-0.5393466949462891,-5.133626461029053
1747571338563752200,13.667752197265624,0.21094083786010742,0.01233053207397461,-6.544327735900879
1747571338579712800,13.683712646484375,-0.463062047958374,0.5067324638366699,-7.439639091491699
1747571338595703600,13.69970361328125,-1.4838321208953857,0.6899356842041016,-7.321484088897705
1747571338611664100,13.7156640625,9.360889434814453,1.954394817352295,-8.327558517456055
1747571338627624400,13.73162451171875,1.8500447273254395,3.15592098236084,-3.941974639892578
1747571338643615500,13.747615478515625,-5.656626224517822,4.249590873718262,-1.868819236755371
1747571338659575800,13.763575927734376,0.1071774959564209,2.6617746353149414,-1.75120210647583
1747571338675536100,13.7795361328125,3.8034749031066895,1.6636419296264648,-2.2281856536865234
1747571338691527200,13.795527099609375,2.448512315750122,1.958871841430664,-3.0787763595581055
1747571338707487700,13.81148779296875,-0.30340778827667236,1.8797721862792969,-3.4192299842834473
1747571338723448000,13.827447998046875,-0.2275252342224121,0.6163468360900879,-2.2275032997131348
1747571338739408400,13.843408447265626,1.2032133340835571,2.19846248626709,-1.3270812034606934
1747571338755399400,13.8593994140625,1.1894733905792236,4.892477989196777,-1.2844524383544922
1747571338771359700,13.87535986328125,0.41018152236938477,6.242541313171387,-1.8451423645019531
1747571338787320300,13.8913203125,-0.8262515068054199,6.15443754196167,-2.844590663909912
1747571338803280600,13.90728076171875,-1.732508897781372,4.983412742614746,-4.14031457901001
1747571338819271700,13.923271728515624,-1.7381986379623413,4.494401454925537,-4.230230808258057
1747571338835232000,13.93923193359375,0.289273738861084,3.8821182250976562,-2.2355690002441406
1747571338851192600,13.955192626953124,1.8718031644821167,2.2743687629699707,2.063599109649658
1747571338867183400,13.971183349609374,2.5205225944519043,1.4290552139282227,3.57454776763916
1747571338883144000,13.98714404296875,4.746302127838135,3.6328837871551514,1.801267147064209
1747571338899104300,14.003104248046874,4.534173965454102,5.529619216918945,0.5843091011047363
1747571338915095300,14.01909521484375,-0.024758338928222656,4.243807792663574,1.0263900756835938
1747571338931055600,14.0350556640625,-1.2664847373962402,-0.3858017921447754,-0.07642173767089844
1747571338947016000,14.051015869140626,-2.8605384826660156,0.6963000297546387,-3.565896987915039
1747571338963007000,14.067007080078126,-3.4312520027160645,1.4764881134033203,-6.636078357696533
1747571338978967300,14.08296728515625,-4.492724895477295,2.376676082611084,-7.291060924530029
1747571338994927900,14.098927978515626,-3.262035369873047,3.278493881225586,-2.3159003257751465
1747571339010918700,14.114918701171876,-7.208036422729492,0.5154685974121094,3.949080467224121
1747571339026879200,14.130879150390625,-4.483077049255371,-1.275526523590088,8.354769706726074
1747571339042870000,14.1468701171875,-3.1753969192504883,-2.709292411804199,3.981006145477295
1747571339058830600,14.16283056640625,-0.3553687334060669,-3.8786888122558594,-1.3062257766723633
1747571339074791000,14.178791015625,-5.22657585144043,-5.3203864097595215,-0.5205440521240234
1747571339090782000,14.194781982421874,-3.7715821266174316,-2.7578091621398926,4.314358234405518
1747571339106742300,14.2107421875,-1.8979262113571167,-3.209972381591797,4.633012771606445
1747571339122733300,14.2267333984375,0.4447457790374756,-4.310484886169434,1.7583675384521484
1747571339138693600,14.242693603515624,3.5048391819000244,-4.994743347167969,-1.1271681785583496
1747571339154684700,14.2586845703125,4.788280010223389,-2.8799333572387695,-3.4397521018981934
1747571339170645000,14.27464501953125,-0.027463912963867188,2.470134735107422,-1.8954973220825195
1747571339186636000,14.290635986328125,0.9069132804870605,2.828174591064453,0.6448864936828613
1747571339202596400,14.306596435546876,1.17885160446167,3.703322410583496,2.640864610671997
1747571339218587400,14.32258740234375,-1.5659180879592896,1.3631644248962402,0.9185564517974854
1747571339234547700,14.338547607421875,-5.504624366760254,2.7885608673095703,-1.7656371593475342
1747571339250538800,14.354538818359375,-3.937108278274536,-4.779138565063477,-3.7482194900512695
1747571339266499000,14.3704990234375,-3.7578938007354736,-11.081440925598145,-3.875166893005371
1747571339282490000,14.386489990234375,-1.3014724254608154,-7.05690860748291,-6.053023338317871
1747571339298450400,14.402450439453125,1.9665627479553223,-2.278463363647461,-5.949537754058838
1747571339314411000,14.418410888671875,2.681706428527832,0.5152778625488281,-4.486551284790039
1747571339330401800,14.43440185546875,0.7148902416229248,1.5701494216918945,-2.950486183166504
1747571339346362400,14.4503623046875,-2.854743003845215,0.6769132614135742,-1.7459752559661865
1747571339362353200,14.466353271484374,-4.462565898895264,-1.1314706802368164,-0.10156786441802979
1747571339378313700,14.482313720703125,-2.4337499141693115,-1.971588134765625,1.4434325695037842
1747571339394274000,14.498274169921874,3.7140705585479736,-1.4639205932617188,2.3323545455932617
1747571339410265000,14.51426513671875,1.8847723007202148,-0.1827239990234375,2.0763187408447266
1747571339426225400,14.530225341796875,-0.7948054075241089,0.934260368347168,1.4888849258422852
1747571339442186000,14.54618603515625,-1.5010499954223633,0.8564338684082031,1.0254971981048584
1747571339458176800,14.5621767578125,-1.0691879987716675,0.22461795806884766,-0.044545650482177734
1747571339474137300,14.578137451171875,-1.1116054058074951,-0.598052978515625,-0.6826602220535278
1747571339490128100,14.594128173828125,-0.9009678959846497,-0.8434085845947266,-0.9813066720962524
1747571339506088700,14.610088623046876,-0.49502283334732056,-0.8217830657958984,-1.0440768003463745
1747571339522049000,14.626049072265625,-0.3428405821323395,-0.3087596893310547,-1.100402593612671
1747571339538040000,14.6420400390625,-0.9989902973175049,-0.33844566345214844,-0.6142189502716064
1747571339554000400,14.65800048828125,-1.200681209564209,-0.10097599029541016,-0.4774893522262573
1747571339569991400,14.673991455078125,-1.067698359489441,-0.21687984466552734,-0.5442332029342651
1747571339585951700,14.68995166015625,-0.9386138916015625,-0.21456146240234375,-0.927692174911499
1747571339601942800,14.70594287109375,-0.958874523639679,-0.3900299072265625,-1.1761837005615234
1747571339617903000,14.721903076171875,-1.0196938514709473,-0.36591053009033203,-1.2288055419921875
1747571339633894100,14.73789404296875,-0.8896034359931946,-0.23268508911132812,-1.2839829921722412
1747571339649854500,14.7538544921875,-0.5979002118110657,-0.1985616683959961,-1.416336178779602
1747571339665845500,14.769845458984374,-0.29933232069015503,-0.2526664733886719,-1.394294023513794
1747571339681805800,14.785805908203125,-0.3209846615791321,-0.24277877807617188,-1.3337056636810303
1747571339697796900,14.801796875,-0.36244669556617737,-0.32263851165771484,-1.0919926166534424
1747571339713757200,14.817757080078126,-0.2889469265937805,-0.24200725555419922,-0.8305978775024414
1747571339729748200,14.833748291015626,-0.14130529761314392,-0.16138172149658203,-0.6666711568832397
1747571339745708500,14.84970849609375,0.10149884223937988,-0.23967933654785156,-0.8171722888946533
1747571339761669000,14.865669189453126,0.3011937737464905,-0.38701343536376953,-1.1578866243362427
1747571339777660000,14.881659912109376,0.32154685258865356,-0.4505729675292969,-1.3363003730773926
1747571339793620500,14.897620361328125,0.29829150438308716,-0.44836997985839844,-1.074108362197876
1747571339809611300,14.913611328125,0.30747583508491516,-0.3347463607788086,-0.5757150650024414
1747571339825571800,14.92957177734375,0.44612306356430054,-0.18438720703125,-0.33664369583129883
1747571339841562600,14.945562744140625,0.630673885345459,-0.2652006149291992,-0.3502936363220215
1747571339857523200,14.961523193359374,0.6521512269973755,-0.5024490356445312,-0.5065199136734009
1747571339873514000,14.977513916015624,0.2348787784576416,-0.5827674865722656,-0.47633183002471924
1747571339889474600,14.993474609375,-0.1000070571899414,-0.6590948104858398,-0.25023138523101807
1747571339905435000,15.009434814453124,-0.04207968711853027,-0.6818466186523438,-0.05327653884887695
1747571339921426000,15.025426025390624,0.14185494184494019,-0.49271678924560547,0.019832611083984375
1747571339937386200,15.04138623046875,0.15986859798431396,-0.36936092376708984,0.11360406875610352
1747571339953377300,15.057377197265625,-0.12884384393692017,-0.2817392349243164,0.18803787231445312
1747571339969337600,15.073337646484376,-0.49220091104507446,-0.2937812805175781,0.4735426902770996
1747571339985328600,15.08932861328125,-0.7602348327636719,-0.2634601593017578,0.6960647106170654
1747571340001289000,15.1052890625,-0.796420693397522,-0.33912181854248047,1.0090415477752686
1747571340017280000,15.121280029296875,-0.7420578598976135,-0.24152851104736328,1.3184850215911865
1747571340033240300,15.137240234375,-0.5233882665634155,-0.1297607421875,1.3666083812713623
1747571340049231400,15.1532314453125,-0.4428015947341919,-0.1069478988647461,1.566316843032837
1747571340065191700,15.169191650390625,-0.41488152742385864,0.0151824951171875,1.574589729309082
1747571340081182700,15.1851826171875,-0.4953773319721222,0.259033203125,1.310377597808838
1747571340097173500,15.201173583984374,-0.5213717222213745,0.4474477767944336,0.946366548538208
1747571340113134000,15.217134033203125,-0.37246090173721313,0.46837711334228516,0.5191028118133545
1747571340129124900,15.233124755859375,-0.12325704097747803,0.2595815658569336,0.1802072525024414
1747571340145085400,15.24908544921875,0.23430341482162476,0.0652608871459961,-0.12430047988891602
1747571340161076200,15.265076171875,0.5095602869987488,0.08615589141845703,-0.4570167064666748
1747571340177036800,15.281036865234375,0.6653724908828735,0.1729907989501953,-0.7341601848602295
1747571340193027600,15.297027587890625,0.8476192951202393,0.3387155532836914,-1.0442495346069336
1747571340208988200,15.31298828125,0.837711751461029,0.5036325454711914,-1.3902603387832642
1747571340224979000,15.32897900390625,0.8824295997619629,0.49395084381103516,-1.5953631401062012
1747571340240939500,15.344939453125,1.143643856048584,0.3006420135498047,-1.729613184928894
1747571340256930300,15.360930419921875,1.4527709484100342,-0.03631019592285156,-1.7200647592544556
1747571340272891000,15.376890869140626,1.4823428392410278,-0.3588237762451172,-1.5051335096359253
1747571340288882000,15.3928818359375,1.2075194120407104,-0.5530929565429688,-0.9740369319915771
1747571340304842200,15.40884228515625,0.8962671756744385,-0.4379997253417969,-0.46639394760131836
1747571340320802600,15.424802490234375,0.7928847074508667,-0.08235549926757812,-0.10655856132507324
1747571340336793600,15.440793701171875,0.7085826396942139,0.38385963439941406,0.009714126586914062
1747571340352754000,15.45675390625,0.5390938520431519,0.5235662460327148,0.13079428672790527
1747571340368745000,15.472744873046874,0.3334310054779053,0.4754457473754883,0.13781166076660156
1747571340384705300,15.488705322265625,0.18182647228240967,0.23853778839111328,0.20639944076538086
1747571340400665900,15.504665771484374,0.07998239994049072,0.1057424545288086,0.29022932052612305
1747571340416656600,15.52065673828125,-0.012375473976135254,0.16440391540527344,0.34087419509887695
1747571340432617200,15.5366171875,-0.034973978996276855,0.3981790542602539,0.23827099800109863
1747571340448577500,15.55257763671875,-0.1040576696395874,0.4775247573852539,0.15840578079223633
1747571340464568600,15.568568603515626,-0.22391915321350098,0.4795370101928711,0.04299449920654297
1747571340480529000,15.58452880859375,-0.3618289828300476,0.38315296173095703,-0.009726762771606445
1747571340496489500,15.600489501953126,-0.46477729082107544,0.16886138916015625,0.018425703048706055
1747571340512480300,15.616480224609376,-0.5020253658294678,0.032042503356933594,0.04549264907836914
1747571340528440800,15.63244091796875,-0.4646033048629761,0.07474136352539062,0.04711318016052246
1747571340544431600,15.648431640625,-0.3640686869621277,0.07095813751220703,0.09498715400695801
1747571340560392200,15.66439208984375,-0.2132805585861206,-0.1067953109741211,0.21836066246032715
1747571340576383000,15.680383056640625,-0.10488134622573853,-0.18191051483154297,0.2601752281188965
1747571340592343600,15.696343505859375,-0.05199950933456421,-0.18259525299072266,0.26614880561828613
1747571340608334300,15.712334228515624,0.03671342134475708,-0.210174560546875,0.20192337036132812
1747571340624295000,15.728294921875,0.08615744113922119,-0.15925884246826172,0.09762334823608398
1747571340640285700,15.74428564453125,0.08218562602996826,-0.15683937072753906,0.03566575050354004
1747571340656246300,15.760246337890624,-0.09441149234771729,-0.22782135009765625,0.058649301528930664
1747571340672237000,15.776237060546874,-0.24732422828674316,-0.34133338928222656,0.1470963954925537
1747571340688197600,15.79219775390625,-0.34241366386413574,-0.3708066940307617,0.25705409049987793
1747571340704188400,15.8081884765625,-0.2019902467727661,-0.23192119598388672,0.30286741256713867
1747571340720149000,15.82414892578125,0.1377953290939331,-0.0838766098022461,0.2963724136352539
1747571340736139800,15.840139892578126,0.337169885635376,-0.13241863250732422,0.351825475692749
1747571340752130800,15.856130859375,0.32915621995925903,-0.3705301284790039,0.35538721084594727
1747571340768091100,15.872091064453125,0.10562413930892944,-0.46726036071777344,0.12436676025390625
1747571340784082200,15.888082275390625,-0.18153291940689087,-0.41851329803466797,-0.12553811073303223
1747571340800042500,15.90404248046875,-0.3823157846927643,-0.3189525604248047,-0.3650209903717041
1747571340816033500,15.920033447265626,-0.5915127396583557,-0.2302713394165039,-0.599714994430542
1747571340831993900,15.935993896484375,-0.7527002692222595,-0.0685281753540039,-0.7365230321884155
1747571340847985000,15.95198486328125,-0.7279871702194214,0.16926097869873047,-0.7169097661972046
1747571340863945200,15.9679453125,-0.5248045921325684,0.3523521423339844,-0.5012975931167603
1747571340879936300,15.983936279296875,-0.30016106367111206,0.3839454650878906,-0.2145451307296753
1747571340895896600,15.999896484375,-0.14222684502601624,0.11421966552734375,0.05891728401184082
1747571340911887600,16.0158876953125,-0.18987366557121277,-0.16733074188232422,0.24580729007720947
1747571340927848000,16.031847900390623,-0.19125628471374512,-0.49306583404541016,0.30522406101226807
1747571340943839000,16.0478388671875,-0.06939321756362915,-0.6278266906738281,0.3040674924850464
1747571340959799300,16.06379931640625,0.0869772881269455,-0.6028299331665039,0.27986323833465576
1747571340975790300,16.079790283203124,0.32548171281814575,-0.3897438049316406,0.24928200244903564
1747571340991750700,16.095750732421877,0.5206726789474487,-0.15213489532470703,0.14330947399139404
1747571341007741700,16.11174169921875,0.5669952630996704,-0.08650779724121094,-0.0800027847290039
1747571341023702300,16.127702392578126,0.3996519148349762,-0.1320209503173828,-0.2576289176940918
1747571341039693000,16.143693115234374,0.2191864252090454,-0.14874744415283203,-0.2835707664489746
1747571341055684000,16.15968408203125,0.1720084249973297,-0.18164920806884766,-0.2916886806488037
1747571341071644400,16.17564453125,0.21298173069953918,-0.24760055541992188,-0.2993725538253784
1747571341087635500,16.191635498046875,0.1997884213924408,-0.23610401153564453,-0.31397414207458496
1747571341103595800,16.207595703125,0.08754193782806396,-0.23822689056396484,-0.31431686878204346
1747571341119586800,16.2235869140625,-0.06958320736885071,-0.18704891204833984,-0.3512611389160156
1747571341135547100,16.239547119140624,-0.23320311307907104,-0.1014719009399414,-0.365966796875
1747571341151538200,16.2555380859375,-0.2989945411682129,0.032962799072265625,-0.38687098026275635
1747571341167529000,16.271529052734376,-0.29715704917907715,-0.028197288513183594,-0.36298108100891113
1747571341183489500,16.287489501953125,-0.20078785717487335,-0.2113962173461914,-0.3413581848144531
1747571341199480300,16.303480224609373,-0.038236409425735474,-0.24666881561279297,-0.4228982925415039
1747571341215441000,16.31944091796875,0.061235249042510986,-0.1865673065185547,-0.5201234817504883
1747571341231431700,16.335431640625,-0.031960129737854004,-0.18902111053466797,-0.43380701541900635
1747571341247392300,16.351392333984375,-0.26605480909347534,-0.2036123275756836,-0.34557414054870605
1747571341263383000,16.367383056640627,-0.44377389550209045,-0.20397567749023438,-0.2006998062133789
1747571341279343600,16.383343505859376,-0.5235437154769897,-0.19245052337646484,-0.07831215858459473
1747571341295334400,16.39933447265625,-0.4362471103668213,-0.2145090103149414,0.01224970817565918
1747571341311325400,16.415325439453124,-0.31679248809814453,-0.18929576873779297,0.09419560432434082
1747571341327285800,16.43128564453125,-0.23304390907287598,-0.11212921142578125,0.13099253177642822
1747571341343276800,16.44727685546875,-0.22169533371925354,-0.09308815002441406,0.12048995494842529
1747571341359237000,16.463237060546874,-0.16719110310077667,-0.09368228912353516,0.08767998218536377
1747571341375228200,16.479228271484374,-0.017485707998275757,-0.1066141128540039,0.07169735431671143
1747571341391188700,16.495188720703126,0.10827365517616272,-0.11987590789794922,0.03939664363861084
1747571341407179500,16.511179443359374,0.13099361956119537,-0.07593154907226562,0.020012497901916504
1747571341423170600,16.527170654296874,0.1632205694913864,-0.08476734161376953,-0.01185452938079834
1747571341439131000,16.543130859375,0.17002137005329132,-0.09136104583740234,-0.11651110649108887
1747571341455122000,16.559121826171875,0.17824183404445648,-0.07645130157470703,-0.20696985721588135
1747571341471112700,16.57511279296875,0.18161189556121826,-0.13814258575439453,-0.2732820510864258
1747571341487073300,16.5910732421875,0.1802958846092224,-0.1518106460571289,-0.3240571618080139
1747571341503064000,16.60706396484375,0.1870846003293991,-0.15333175659179688,-0.33000504970550537
1747571341519055000,16.62305517578125,0.12812291085720062,-0.15492630004882812,-0.2715798020362854
1747571341535015400,16.639015380859377,-0.002957969903945923,-0.10661602020263672,-0.23034358024597168
1747571341551006500,16.65500634765625,-0.022132739424705505,-0.05151557922363281,-0.09194469451904297
1747571341566966800,16.670966796875,0.10990151762962341,-0.03981971740722656,-0.10973012447357178
1747571341582957800,16.686957763671874,0.26643872261047363,-0.06667137145996094,-0.1558455228805542
1747571341598948900,16.702948974609374,0.2638819217681885,-0.12230777740478516,-0.31900954246520996
1747571341614909200,16.7189091796875,0.19825132191181183,-0.170379638671875,-0.47355902194976807
1747571341630900200,16.734900146484375,0.05012929439544678,-0.23441505432128906,-0.5398744940757751
1747571341646860500,16.750860595703124,-0.1292172223329544,-0.24991130828857422,-0.534041702747345
1747571341662851600,16.7668515625,-0.05759134888648987,-0.21923255920410156,-0.5143014788627625
1747571341678842400,16.78284228515625,0.10448813438415527,-0.15957164764404297,-0.4572485089302063
1747571341694803000,16.798802978515624,0.09454783797264099,-0.08824443817138672,-0.19192951917648315
1747571341710793700,16.814793701171876,0.0328366756439209,-0.06014823913574219,0.058069705963134766
1747571341726754300,16.83075439453125,-0.023914694786071777,-0.11615562438964844,0.2049015760421753
1747571341742745000,16.8467451171875,-0.15002185106277466,-0.12932872772216797,0.3453620672225952
1747571341758705700,16.86270556640625,-0.2919881045818329,-0.14976787567138672,0.40895187854766846
1747571341774696400,16.878696533203126,-0.37851864099502563,-0.1438741683959961,0.4820960760116577
1747571341790657000,16.894656982421875,-0.32258009910583496,-0.1140146255493164,0.5523185729980469
1747571341806647800,16.910647705078127,-0.11023545265197754,-0.03367424011230469,0.637441873550415
1747571341822608400,16.9266083984375,0.07224518060684204,0.08532333374023438,0.7056351900100708
1747571341838599200,16.94259912109375,0.023458123207092285,0.0393218994140625,0.7064504623413086
1747571341854590200,16.958590087890624,-0.00780940055847168,-0.056926727294921875,0.6481302976608276
1747571341870550500,16.974550537109376,0.1617317944765091,-0.11271286010742188,0.3394782543182373
1747571341886541600,16.99054150390625,0.27426084876060486,-0.15511226654052734,-0.10967576503753662
1747571341902502000,17.006501953125,0.162587508559227,-0.19357681274414062,-0.5091243982315063
1747571341918493000,17.022492919921874,0.0009714663028717041,-0.13672256469726562,-0.8207480907440186
1747571341934484000,17.03848388671875,-0.04744228720664978,-0.04343700408935547,-0.9016478061676025
1747571341950444300,17.0544443359375,0.013250157237052917,-0.0999612808227539,-0.3743998408317566
1747571341966435300,17.070435302734374,0.08200874924659729,-0.09115219116210938,0.12676501274108887
1747571341982426000,17.086426025390626,0.00923493504524231,-0.022170066833496094,0.4100759029388428
1747571341998386700,17.10238671875,-0.07448594272136688,0.11164188385009766,0.6663004159927368
1747571342014377500,17.11837744140625,-0.022205471992492676,0.2350759506225586,0.5743656158447266
1747571342030338000,17.134338134765624,0.16711150109767914,0.21623516082763672,0.19970285892486572
1747571342046328800,17.150328857421876,0.33961033821105957,0.06600761413574219,-0.26325833797454834
1747571342062289400,17.166289306640625,0.4668208956718445,-0.09300994873046875,-0.6048840284347534
1747571342078280200,17.1822802734375,0.37334996461868286,-0.27430152893066406,-0.6930471062660217
1747571342094240800,17.19824072265625,0.04226759076118469,-0.3466072082519531,-0.2757776975631714
1747571342110231600,17.2142314453125,-0.02632218599319458,-0.2399435043334961,0.22875022888183594
1747571342126222600,17.23022265625,0.025382280349731445,-0.03632545471191406,0.45863592624664307
1747571342142183000,17.246182861328126,0.04029783606529236,0.22658061981201172,0.44708800315856934
1747571342158174000,17.262174072265626,-0.020408734679222107,0.3002462387084961,0.3632897138595581
1747571342174165000,17.2781650390625,0.02594904601573944,0.1436481475830078,0.4609636068344116
1747571342190125300,17.294125244140623,0.18553341925144196,-0.021429061889648438,0.6239315271377563
1747571342206116400,17.310116455078123,0.18377584218978882,-0.1947612762451172,0.7083390951156616
1747571342222107100,17.326107177734375,0.0965435802936554,-0.31362342834472656,0.585837721824646
1747571342238067700,17.342067626953124,0.22572526335716248,-0.2960939407348633,0.1667025089263916
1747571342254058500,17.35805859375,0.3395065367221832,-0.22202587127685547,-0.4570155143737793
1747571342270019000,17.37401904296875,0.06365799903869629,-0.2015705108642578,-0.7727317214012146
1747571342286009900,17.390009765625,-0.33873456716537476,-0.05514049530029297,-0.48141348361968994
1747571342301970400,17.405970458984374,-0.5677627325057983,0.14250755310058594,0.11402976512908936
1747571342317961200,17.421961181640626,-0.6981223821640015,0.2610464096069336,0.6429011821746826
1747571342333952300,17.4379521484375,-0.6785969734191895,0.3084373474121094,1.004329800605774
1747571342349912600,17.45391259765625,-0.4478101134300232,0.30053043365478516,1.258854627609253
1747571342365903600,17.469903564453126,-0.14646631479263306,0.13929271697998047,1.142119288444519
1747571342381864000,17.485864013671875,0.07980012893676758,-0.03521251678466797,0.9510245323181152
1747571342397855000,17.50185498046875,0.1795768439769745,-0.2025899887084961,0.8943722248077393
1747571342413815300,17.517815185546876,0.3004893362522125,-0.26169586181640625,0.8430951833724976
1747571342429806300,17.533806396484376,0.38697102665901184,-0.14325904846191406,0.7016055583953857
1747571342445797400,17.54979736328125,0.3758716285228729,0.02748394012451172,0.37380707263946533
1747571342461757700,17.5657578125,0.3038741648197174,0.008352279663085938,-0.017589092254638672
1747571342477748700,17.581748779296873,0.3107277750968933,-0.14829349517822266,-0.4079347848892212
1747571342493709000,17.597708984375,0.3446003794670105,-0.31661510467529297,-0.687058687210083
1747571342509700000,17.6137001953125,0.31259816884994507,-0.4036369323730469,-0.8022094368934631
1747571342525660400,17.629660400390627,0.2609465718269348,-0.37334156036376953,-0.7552807331085205
1747571342541651500,17.6456513671875,0.07755045592784882,-0.22651100158691406,-0.6941572427749634
1747571342557611800,17.66161181640625,-0.207717165350914,-0.06627941131591797,-0.5119349956512451
1747571342573602800,17.677602783203124,-0.2766161561012268,0.10441875457763672,-0.32021260261535645
1747571342589593600,17.693593505859376,-0.3008860945701599,0.1506338119506836,-0.14616155624389648
1747571342605554200,17.70955419921875,-0.1912936270236969,0.08304595947265625,-0.05214035511016846
1747571342621545000,17.725544921875,-0.03342756628990173,-0.1389636993408203,-0.0181732177734375
1747571342637505500,17.741505615234374,0.18083615601062775,-0.3354606628417969,-0.03200483322143555
1747571342653496300,17.757496337890625,0.4126499891281128,-0.37207794189453125,-0.2112520933151245
1747571342669487400,17.7734873046875,0.43007346987724304,-0.23168277740478516,-0.430874228477478
1747571342685447700,17.78944775390625,0.2898133397102356,-0.03819084167480469,-0.5309605598449707
1747571342701438700,17.805438720703126,0.055012524127960205,0.057900428771972656,-0.49787724018096924
1747571342717399000,17.82139892578125,-0.25095972418785095,0.04896068572998047,-0.25201869010925293
1747571342733390000,17.83739013671875,-0.34624359011650085,-0.037052154541015625,0.013368606567382812
1747571342749381000,17.853381103515623,-0.3251326382160187,-0.09242630004882812,0.13992154598236084
1747571342765341400,17.869341552734376,-0.2200990915298462,-0.11702442169189453,0.2009819746017456
1747571342781332500,17.88533251953125,-0.07981742918491364,-0.15633296966552734,0.13495266437530518
1747571342797323300,17.9013232421875,-0.06784853339195251,-0.11934566497802734,0.06950080394744873
1747571342813283800,17.917283935546877,-0.09272351861000061,-0.02982330322265625,0.20923078060150146
1747571342829274600,17.933274658203125,-0.05558708310127258,0.0594635009765625,0.39004695415496826
1747571342845235200,17.949235107421874,0.014356434345245361,0.14061260223388672,0.4850189685821533
1747571342861226000,17.96522607421875,0.08834907412528992,0.10307788848876953,0.4252049922943115
1747571342877186600,17.9811865234375,-0.05332373082637787,-0.05496406555175781,0.3797560930252075
1747571342893177300,17.99717724609375,-0.1387602984905243,-0.2657461166381836,0.4152737855911255
1747571342909138000,18.013137939453124,-0.187016099691391,-0.32552623748779297,0.5017304420471191
1747571342925128700,18.029128662109375,-0.13827836513519287,-0.11723613739013672,0.5011284351348877
1747571342941119700,18.04511962890625,0.014110371470451355,0.04770660400390625,0.415283203125
1747571342957080000,18.061080078125,0.16770964860916138,0.008951187133789062,0.2524445056915283
1747571342973071000,18.077071044921876,0.29161787033081055,-0.058040618896484375,-0.030397772789001465
1747571342989062000,18.093061767578124,0.38759177923202515,-0.12206649780273438,-0.26553773880004883
1747571343005022500,18.1090224609375,0.39738938212394714,-0.18585586547851562,-0.395466685295105
1747571343021013200,18.12501318359375,0.34667518734931946,-0.3354673385620117,-0.5672116279602051
1747571343036973800,18.140973876953126,0.06299808621406555,-0.44583988189697266,-0.6836509704589844
1747571343052964900,18.15696484375,-0.3304678797721863,-0.35590267181396484,-0.7586489319801331
1747571343068925200,18.17292529296875,-0.49118033051490784,-0.1420583724975586,-0.6509522199630737
1747571343084916200,18.188916259765627,-0.39880695939064026,0.07118034362792969,-0.5432336330413818
1747571343100876500,18.20487646484375,-0.27380356192588806,0.12484073638916016,-0.44608819484710693
1747571343116867600,18.22086767578125,-0.21202632784843445,0.08030986785888672,-0.3429635763168335
1747571343132828000,18.236827880859376,-0.16568168997764587,-0.04552173614501953,-0.20183777809143066
1747571343148819000,18.25281884765625,-0.14349989593029022,-0.09685230255126953,-0.09315574169158936
1747571343164779300,18.268779296875,-0.12447261810302734,-0.13662242889404297,0.039214134216308594
1747571343180770300,18.284770263671874,-0.08288425207138062,-0.1744375228881836,0.08744502067565918
1747571343196730600,18.300730712890626,-0.04876059293746948,-0.12871074676513672,0.06930851936340332
1747571343212691000,18.31669091796875,0.016200006008148193,-0.08569049835205078,0.027487516403198242
1747571343228682000,18.332681884765623,0.08214226365089417,-0.09818649291992188,0.06133830547332764
1747571343244673000,18.348673095703123,0.06876397132873535,-0.09919071197509766,0.060813188552856445
1747571343260633300,18.36463330078125,-0.023141056299209595,-0.1029510498046875,0.13004255294799805
1747571343276624400,18.380624267578124,-0.17880569398403168,-0.11627960205078125,0.21888482570648193
1747571343292584700,18.396584716796873,-0.2240818738937378,-0.07925128936767578,0.29340875148773193
1747571343308575700,18.41257568359375,-0.23369266092777252,-0.03527355194091797,0.31526100635528564
1747571343324536000,18.4285361328125,-0.14557817578315735,-0.039577484130859375,0.3649003505706787
1747571343340527000,18.444527099609374,0.045999675989151,-0.0754547119140625,0.2968180179595947
1747571343356487400,18.4604873046875,0.22846205532550812,-0.09227561950683594,0.17844605445861816
1747571343372478500,18.476478515625,0.3422045111656189,-0.14272403717041016,0.06987643241882324
1747571343388438800,18.492438720703124,0.3916967511177063,-0.2004251480102539,-0.13363659381866455
1747571343404429800,18.508429931640624,0.40389829874038696,-0.22206401824951172,-0.3035229444503784
1747571343420390100,18.52439013671875,0.2609090507030487,-0.22390460968017578,-0.41059887409210205
1747571343436381200,18.540381103515625,-0.010112553834915161,-0.17214107513427734,-0.3557978868484497
1747571343452341500,18.556341552734374,-0.1795390248298645,-0.18208980560302734,-0.13815104961395264
1747571343468332500,18.57233251953125,-0.10347223281860352,-0.1393413543701172,0.03980898857116699
1747571343484292900,18.58829296875,0.023785114288330078,-0.12828540802001953,0.14848411083221436
1747571343500284000,18.604283935546874,0.1746598482131958,-0.12272071838378906,0.0896691083908081
1747571343516244200,18.620244140625,0.32410523295402527,-0.132171630859375,-0.11165893077850342
1747571343532235300,18.6362353515625,0.2902507185935974,-0.11556720733642578,-0.2607835531234741
1747571343548195600,18.652195556640624,0.07371190190315247,-0.10313701629638672,-0.25660979747772217
1747571343564186600,18.6681865234375,-0.1800999939441681,-0.07807159423828125,-0.10491490364074707
1747571343580147000,18.68414697265625,-0.2524696886539459,-0.11255264282226562,0.11448049545288086
1747571343596138000,18.700137939453125,-0.1672344207763672,-0.12308788299560547,0.18422961235046387
1747571343612128800,18.716128662109377,-0.009319663047790527,-0.09320926666259766,0.09133243560791016
1747571343628089300,18.73208935546875,0.10651344060897827,-0.051924705505371094,0.011814355850219727
1747571343644080000,18.748080078125,0.2596634328365326,-0.027703285217285156,-0.05479633808135986
1747571343660071200,18.7640712890625,0.38729923963546753,-0.09208297729492188,-0.04887247085571289
1747571343676031500,18.780031494140626,0.36842116713523865,-0.22122859954833984,0.005536437034606934
1747571343692022500,18.7960224609375,0.19559252262115479,-0.2738790512084961,0.04346966743469238
1747571343707982800,18.81198291015625,0.09190431237220764,-0.3314533233642578,0.19574499130249023
1747571343723974000,18.827973876953124,0.035237789154052734,-0.2960653305053711,0.2641918659210205
1747571343739965000,18.84396484375,-0.003893136978149414,-0.17255115509033203,0.1912611722946167
1747571343755925200,18.85992529296875,-0.03147315979003906,-0.0899810791015625,0.13403642177581787
1747571343771916300,18.875916259765624,-0.07383908331394196,-0.03157234191894531,0.07832217216491699
1747571343787876600,18.891876708984373,-0.11025591194629669,0.07970523834228516,0.08835875988006592
1747571343803867600,18.90786767578125,-0.0885610431432724,0.205474853515625,0.12269413471221924
1747571343819828000,18.923827880859374,-0.0613287091255188,0.20424175262451172,0.07711029052734375
1747571343835819000,18.939819091796874,-0.05152487754821777,0.0089263916015625,0.042617082595825195
1747571343851809800,18.955809814453126,0.040529608726501465,-0.1984386444091797,-0.04484879970550537
1747571343867770400,18.971770263671875,0.09892886877059937,-0.3412504196166992,-0.10618007183074951
1747571343883761200,18.98776123046875,0.0705084502696991,-0.29717445373535156,-0.0942847728729248
1747571343899752200,19.003752197265626,-0.014635086059570312,-0.09720230102539062,0.06067860126495361
1747571343915712500,19.01971240234375,-0.06787721812725067,0.0790395736694336,0.10419368743896484
1747571343931703600,19.03570361328125,-0.04018813371658325,0.14319324493408203,0.1309274435043335
1747571343947694600,19.051694580078124,-0.12801826000213623,0.0813741683959961,0.2724478244781494
1747571343963655000,19.067655029296876,-0.16765688359737396,-0.071197509765625,0.4270251989364624
1747571343979646000,19.08364599609375,-0.13319052755832672,-0.1816234588623047,0.6178109645843506
1747571343995636700,19.09963671875,-0.17838630080223083,-0.14789390563964844,0.7802407741546631
1747571344011597300,19.115597412109373,-0.15991006791591644,0.048618316650390625,0.8184945583343506
1747571344027588000,19.131588134765625,-0.05534526705741882,0.1856365203857422,0.543626070022583
1747571344043548700,19.147548583984374,-0.04884594678878784,0.17111682891845703,0.18062257766723633
1747571344059539500,19.16353955078125,-0.10875946283340454,0.11500072479248047,0.016939163208007812
1747571344075530500,19.179530517578126,-0.1391908824443817,0.0948944091796875,0.0656893253326416
1747571344091490800,19.19549072265625,-0.04860587418079376,0.09290790557861328,0.17309927940368652
1747571344107481900,19.21148193359375,0.07853522896766663,0.1295604705810547,0.21019721031188965
1747571344123442200,19.227442138671876,0.12879690527915955,0.06809711456298828,0.07291269302368164
1747571344139433200,19.24343310546875,0.18752333521842957,-0.09824180603027344,-0.14112186431884766
1747571344155424300,19.25942431640625,0.16096758842468262,-0.22104549407958984,-0.29319262504577637
1747571344171384600,19.275384521484376,0.10880669951438904,-0.25661659240722656,-0.32813310623168945
1747571344187345000,19.291344970703125,0.034641772508621216,-0.29553699493408203,-0.23970890045166016
1747571344203336000,19.3073359375,0.04078716039657593,-0.2523536682128906,-0.016842126846313477
1747571344219327000,19.323326904296874,0.06046992540359497,-0.13994979858398438,0.1810319423675537
1747571344235287300,19.339287353515626,0.08813536167144775,-0.032973289489746094,0.37137389183044434
1747571344251278300,19.3552783203125,0.11837074160575867,0.044480323791503906,0.3695659637451172
1747571344267269000,19.37126904296875,0.08576875925064087,-0.0012521743774414062,0.19393396377563477
1747571344283229700,19.387229736328123,-0.03088909387588501,-0.0999441146850586,0.13747549057006836
1747571344299220500,19.403220458984375,-0.16864657402038574,-0.14323711395263672,0.19282817840576172
1747571344315181000,19.41918115234375,-0.21731539070606232,-0.16478729248046875,0.2801246643066406
1747571344331171800,19.435171875,-0.2717137932777405,-0.09801387786865234,0.43538427352905273
