time,seconds_elapsed,z,y,x
1747571324967048400,0.07104833984375,0.0012217304902151227,-0.003054326167330146,-0.0012217304902151227
1747571324982368300,0.0863681640625,0.0006108652451075613,-0.0012217304902151227,-0.0012217304902151227
1747571324998359000,0.102359130859375,-0.0024434609804302454,-0.0006108652451075613,-0.001832595793530345
1747571325014319600,0.118319580078125,0.0012217304902151227,-0.00366519158706069,0.0006108652451075613
1747571325030310400,0.134310302734375,0.0012217304902151227,-0.00427605677396059,0
1747571325046301400,0.150301513671875,-0.0012217304902151227,0.0006108652451075613,-0.004886921960860491
1747571325062261800,0.16626171875,-0.0006108652451075613,-0.006719517521560192,-0.0024434609804302454
1747571325078283300,0.182283203125,0.00427605677396059,0,-0.0012217304902151227
1747571325094213000,0.198213134765625,0.001832595793530345,-0.004886921960860491,-0.0012217304902151227
1747571325110204200,0.2142041015625,0,0.001832595793530345,-0.00733038317412138
1747571325126164500,0.23016455078125,-0.00366519158706069,-0.0006108652451075613,-0.0006108652451075613
1747571325142155500,0.246155517578125,0.001832595793530345,-0.0006108652451075613,-0.0024434609804302454
1747571325158146600,0.262146484375,0,0.003054326167330146,-0.003054326167330146
1747571325174107000,0.27810693359375,0.003054326167330146,-0.0024434609804302454,-0.0024434609804302454
1747571325190067500,0.2940673828125,0.001832595793530345,-0.0012217304902151227,-0.001832595793530345
1747571325206058200,0.310058349609375,0.0006108652451075613,0.0006108652451075613,-0.0012217304902151227
1747571325222018800,0.326018798828125,-0.001832595793530345,-0.001832595793530345,0
1747571325238040000,0.3420400390625,0.001832595793530345,-0.0006108652451075613,-0.0006108652451075613
1747571325253970200,0.35797021484375,0.001832595793530345,0.0006108652451075613,-0.001832595793530345
1747571325269961000,0.3739609375,0.0006108652451075613,-0.0024434609804302454,-0.0024434609804302454
1747571325285921500,0.389921630859375,0.0006108652451075613,-0.001832595793530345,0
1747571325301912300,0.405912353515625,0.0024434609804302454,-0.001832595793530345,-0.0012217304902151227
1747571325317903400,0.4219033203125,-0.0012217304902151227,-0.007941247895359993,-0.001832595793530345
1747571325333863700,0.43786376953125,0.001832595793530345,-0.001832595793530345,-0.003054326167330146
1747571325349824300,0.45382421875,-0.0012217304902151227,-0.0012217304902151227,0
1747571325365815300,0.469815185546875,0.001832595793530345,-0.00366519158706069,0.0006108652451075613
1747571325381775600,0.485775634765625,0.004886921960860491,-0.0012217304902151227,-0.0006108652451075613
1747571325397766700,0.5017666015625,0.0006108652451075613,-0.0006108652451075613,-0.0024434609804302454
1747571325413727000,0.51772705078125,-0.001832595793530345,-0.0006108652451075613,0.0006108652451075613
1747571325429687300,0.533687255859375,-0.001832595793530345,-0.0006108652451075613,-0.001832595793530345
1747571325445678300,0.54967822265625,0,0.0012217304902151227,0
1747571325461669400,0.56566943359375,-0.0012217304902151227,-0.0006108652451075613,-0.0012217304902151227
1747571325477660200,0.58166015625,0.0012217304902151227,-0.004886921960860491,-0.0006108652451075613
1747571325493590300,0.59759033203125,-0.0024434609804302454,-0.0024434609804302454,-0.003054326167330146
1747571325509581000,0.6135810546875,-0.0012217304902151227,-0.0006108652451075613,-0.0024434609804302454
1747571325525572000,0.629572021484375,0,-0.0006108652451075613,-0.0012217304902151227
1747571325541532400,0.645532470703125,0.0006108652451075613,-0.001832595793530345,0.0024434609804302454
1747571325557523500,0.6615234375,0,-0.005497787147760391,-0.001832595793530345
1747571325573483800,0.67748388671875,-0.0012217304902151227,-0.0006108652451075613,0
1747571325589474800,0.693474853515625,-0.001832595793530345,0,-0.0006108652451075613
1747571325605465900,0.7094658203125,-0.0006108652451075613,0.0024434609804302454,-0.001832595793530345
1747571325621426200,0.72542626953125,0.0012217304902151227,-0.006108652334660292,-0.001832595793530345
1747571325637447700,0.74144775390625,0.0006108652451075613,-0.003054326167330146,-0.004886921960860491
1747571325653408000,0.757407958984375,0.0006108652451075613,0.0006108652451075613,-0.00427605677396059
1747571325669368600,0.77336865234375,0.0006108652451075613,-0.00427605677396059,-0.005497787147760391
1747571325685359400,0.789359375,0.0012217304902151227,0.0006108652451075613,-0.003054326167330146
1747571325701320000,0.80531982421875,0.001832595793530345,0.001832595793530345,-0.004886921960860491
1747571325717341400,0.821341552734375,0.001832595793530345,0.0006108652451075613,-0.00366519158706069
1747571325733301800,0.8373017578125,0.0012217304902151227,-0.0006108652451075613,-0.0012217304902151227
1747571325749262300,0.853262451171875,0.001832595793530345,0,-0.006108652334660292
1747571325765253000,0.869253173828125,0.003054326167330146,-0.003054326167330146,-0.00733038317412138
1747571325781244200,0.885244140625,0,0,-0.00733038317412138
1747571325797235000,0.90123486328125,0.0012217304902151227,0,-0.005497787147760391
1747571325813195500,0.917195556640625,0.0012217304902151227,-0.0024434609804302454,-0.003054326167330146
1747571325829186600,0.9331865234375,0,-0.004886921960860491,-0.005497787147760391
1747571325845147000,0.94914697265625,0.001832595793530345,-0.0006108652451075613,-0.00366519158706069
1747571325861138000,0.965137939453125,0.001832595793530345,0.001832595793530345,-0.004886921960860491
1747571325877128700,0.981128662109375,0.0024434609804302454,-0.0024434609804302454,-0.0012217304902151227
1747571325893089300,0.99708935546875,0.001832595793530345,-0.0024434609804302454,-0.0006108652451075613
1747571325909080000,1.013080078125,0.0012217304902151227,-0.0012217304902151227,0.0006108652451075613
1747571325925040600,1.02904052734375,-0.001832595793530345,-0.001832595793530345,-0.003054326167330146
1747571325941031400,1.045031494140625,0.0012217304902151227,-0.0012217304902151227,-0.0006108652451075613
1747571325957022500,1.0610224609375,-0.00366519158706069,0.0012217304902151227,-0.0012217304902151227
1747571325972982800,1.076982666015625,0,-0.0006108652451075613,0
1747571325988973800,1.092973876953125,0,-0.004886921960860491,-0.003054326167330146
1747571326004934400,1.108934326171875,0.0024434609804302454,-0.0006108652451075613,-0.003054326167330146
1747571326020925200,1.12492529296875,0.0024434609804302454,0.0012217304902151227,-0.00427605677396059
1747571326036916200,1.140916259765625,-0.0006108652451075613,-0.00366519158706069,-0.0024434609804302454
1747571326052876500,1.15687646484375,0.0006108652451075613,-0.004886921960860491,-0.001832595793530345
1747571326068867600,1.17286767578125,0.0006108652451075613,-0.004886921960860491,-0.00366519158706069
1747571326084858600,1.188858642578125,0,-0.0006108652451075613,0.0024434609804302454
1747571326100819000,1.20481884765625,0,-0.001832595793530345,0.001832595793530345
1747571326116840400,1.22084033203125,0.0012217304902151227,-0.00366519158706069,-0.001832595793530345
1747571326132770300,1.236770263671875,0,0.0006108652451075613,-0.0006108652451075613
1747571326148761300,1.25276123046875,0.0006108652451075613,-0.003054326167330146,0.0012217304902151227
1747571326164721700,1.2687216796875,0.00366519158706069,0.0024434609804302454,-0.001832595793530345
1747571326180712700,1.284712646484375,0.0024434609804302454,0.0012217304902151227,-0.0024434609804302454
1747571326196703500,1.300703369140625,0.0006108652451075613,0.0006108652451075613,-0.004886921960860491
1747571326212664000,1.3166640625,-0.0012217304902151227,-0.006108652334660292,-0.003054326167330146
1747571326228654800,1.33265478515625,0.00427605677396059,-0.0006108652451075613,0.0006108652451075613
1747571326244615400,1.348615478515625,0.0006108652451075613,0.001832595793530345,0
1747571326260606500,1.3646064453125,0.0024434609804302454,0.0006108652451075613,0
1747571326276597200,1.38059716796875,0.001832595793530345,-0.0012217304902151227,-0.00366519158706069
1747571326292557800,1.396557861328125,0.0006108652451075613,-0.00427605677396059,0.0006108652451075613
1747571326308548600,1.412548583984375,-0.0006108652451075613,-0.001832595793530345,-0.0012217304902151227
1747571326324509200,1.42850927734375,0.001832595793530345,0,-0.0006108652451075613
1747571326340500000,1.4445,0,-0.0012217304902151227,-0.0006108652451075613
1747571326356491000,1.460490966796875,0.0006108652451075613,-0.0006108652451075613,0.0006108652451075613
1747571326372451300,1.476451416015625,0.0006108652451075613,0.003054326167330146,-0.001832595793530345
1747571326388442400,1.4924423828125,-0.0006108652451075613,0,-0.0006108652451075613
1747571326404433400,1.508433349609375,0.0012217304902151227,-0.0024434609804302454,0
1747571326420393700,1.524393798828125,0.0012217304902151227,-0.001832595793530345,0.0006108652451075613
1747571326436415200,1.540415283203125,-0.0006108652451075613,-0.003054326167330146,-0.0006108652451075613
1747571326452375600,1.55637548828125,0.0006108652451075613,0.0024434609804302454,0.0012217304902151227
1747571326468336000,1.572336181640625,0.0006108652451075613,-0.0006108652451075613,0.0006108652451075613
1747571326484327000,1.588326904296875,0,-0.001832595793530345,-0.0006108652451075613
1747571326500287500,1.60428759765625,-0.0006108652451075613,-0.001832595793530345,-0.00366519158706069
1747571326516309000,1.62030908203125,-0.00366519158706069,-0.00427605677396059,-0.0024434609804302454
1747571326532269300,1.636269287109375,0.0012217304902151227,-0.0024434609804302454,-0.001832595793530345
1747571326548230000,1.65222998046875,-0.00366519158706069,-0.0006108652451075613,0.0006108652451075613
1747571326564220700,1.668220703125,0.0012217304902151227,-0.0012217304902151227,-0.00427605677396059
1747571326580211700,1.684211669921875,0.0006108652451075613,-0.001832595793530345,0.0012217304902151227
1747571326596202500,1.700202392578125,0.0012217304902151227,-0.0024434609804302454,0.0006108652451075613
1747571326612163000,1.7161630859375,-0.001832595793530345,0,-0.0012217304902151227
1747571326628154000,1.732154052734375,0.0006108652451075613,-0.003054326167330146,-0.00427605677396059
1747571326644114400,1.748114501953125,-0.0006108652451075613,-0.00427605677396059,-0.001832595793530345
1747571326660105500,1.76410546875,-0.0006108652451075613,0.0024434609804302454,0.00366519158706069
1747571326676126700,1.780126708984375,0.001832595793530345,-0.0012217304902151227,0.001832595793530345
1747571326692087300,1.79608740234375,0,0.0006108652451075613,-0.0006108652451075613
1747571326708047600,1.812047607421875,-0.0012217304902151227,0.0006108652451075613,0.0024434609804302454
1747571326724038700,1.82803857421875,0.0006108652451075613,0.0006108652451075613,0.003054326167330146
1747571326739999000,1.8439990234375,-0.0024434609804302454,0.00366519158706069,0.006108652334660292
1747571326756020500,1.8600205078125,0.001832595793530345,0.001832595793530345,0.00427605677396059
1747571326771950300,1.875950439453125,0.0012217304902151227,-0.004886921960860491,-0.0024434609804302454
1747571326787941400,1.89194140625,-0.0006108652451075613,-0.0024434609804302454,-0.0006108652451075613
1747571326803902000,1.90790185546875,-0.0006108652451075613,-0.0012217304902151227,0.0006108652451075613
1747571326819892700,1.923892822265625,0.0012217304902151227,0.0012217304902151227,0.00366519158706069
1747571326835883800,1.9398837890625,-0.0006108652451075613,0,0.005497787147760391
1747571326851844000,1.955843994140625,-0.0012217304902151227,0,0.0012217304902151227
1747571326867835100,1.971835205078125,-0.0006108652451075613,0,-0.001832595793530345
1747571326883795500,1.98779541015625,-0.0012217304902151227,0.0006108652451075613,0.0012217304902151227
1747571326899786500,2.003786376953125,-0.0012217304902151227,0.003054326167330146,0.001832595793530345
1747571326915777500,2.019777587890625,-0.0006108652451075613,0.00427605677396059,0
1747571326931737900,2.03573779296875,-0.00366519158706069,0.001832595793530345,0.0006108652451075613
1747571326947729000,2.05172900390625,0.00427605677396059,-0.001832595793530345,0.0012217304902151227
1747571326963689200,2.067689208984375,-0.003054326167330146,-0.0012217304902151227,0.005497787147760391
1747571326979680300,2.08368017578125,0.0006108652451075613,-0.006108652334660292,0.0012217304902151227
1747571326995671000,2.099671142578125,-0.0024434609804302454,-0.0024434609804302454,0.0006108652451075613
1747571327011631600,2.115631591796875,-0.0012217304902151227,0.0006108652451075613,0.0006108652451075613
1747571327027622400,2.131622314453125,-0.0012217304902151227,0.0006108652451075613,-0.0006108652451075613
1747571327043583000,2.1475830078125,-0.003054326167330146,-0.0012217304902151227,0.0012217304902151227
1747571327059573800,2.16357373046875,-0.0024434609804302454,-0.0012217304902151227,0.003054326167330146
1747571327075564800,2.179564697265625,-0.001832595793530345,-0.005497787147760391,-0.0024434609804302454
1747571327091525400,2.195525390625,0.0006108652451075613,-0.0024434609804302454,-0.0006108652451075613
1747571327107485700,2.211485595703125,0.001832595793530345,-0.0012217304902151227,0.0006108652451075613
1747571327123476700,2.227476806640625,0.001832595793530345,-0.0006108652451075613,-0.0006108652451075613
1747571327139437000,2.24343701171875,0,-0.004886921960860491,0
1747571327155458600,2.25945849609375,-0.003054326167330146,-0.001832595793530345,0.003054326167330146
1747571327171388400,2.275388427734375,-0.0012217304902151227,0.001832595793530345,-0.004886921960860491
1747571327187379500,2.29137939453125,0.0012217304902151227,-0.0006108652451075613,-0.0012217304902151227
1747571327203339800,2.30733984375,0.0006108652451075613,0.0006108652451075613,-0.001832595793530345
1747571327219330800,2.323330810546875,-0.0012217304902151227,-0.0006108652451075613,0.0006108652451075613
1747571327235321600,2.339321533203125,0.0024434609804302454,-0.003054326167330146,0
1747571327251282200,2.3552822265625,0.0006108652451075613,-0.0006108652451075613,0.001832595793530345
1747571327267273200,2.371273193359375,-0.0024434609804302454,-0.00366519158706069,0.0006108652451075613
1747571327283233500,2.387233642578125,-0.0006108652451075613,-0.001832595793530345,0.001832595793530345
1747571327299224600,2.403224609375,0.0006108652451075613,0.0006108652451075613,-0.0006108652451075613
1747571327315215400,2.41921533203125,0.001832595793530345,-0.001832595793530345,0.0012217304902151227
1747571327331176000,2.435176025390625,-0.003054326167330146,0.0006108652451075613,0.0012217304902151227
1747571327347136300,2.45113623046875,-0.001832595793530345,0,0.0024434609804302454
1747571327363127300,2.467127197265625,0.0012217304902151227,-0.005497787147760391,-0.0006108652451075613
1747571327379087600,2.483087646484375,0.0006108652451075613,-0.004886921960860491,0.0024434609804302454
1747571327395109000,2.499109130859375,-0.00366519158706069,0.001832595793530345,0
1747571327411039000,2.5150390625,0.0006108652451075613,0.001832595793530345,-0.0012217304902151227
1747571327427030000,2.531030029296875,0,-0.0024434609804302454,-0.0012217304902151227
1747571327442990300,2.546990234375,-0.001832595793530345,-0.0024434609804302454,-0.0006108652451075613
1747571327458981400,2.5629814453125,0,-0.00427605677396059,-0.001832595793530345
1747571327474972400,2.578972412109375,0.001832595793530345,0.001832595793530345,0
1747571327490902300,2.59490234375,-0.001832595793530345,0,0.0012217304902151227
1747571327506893000,2.61089306640625,-0.001832595793530345,-0.005497787147760391,0
1747571327522853600,2.626853515625,-0.003054326167330146,-0.003054326167330146,0.0006108652451075613
1747571327538844700,2.6428447265625,-0.003054326167330146,-0.0024434609804302454,0.0012217304902151227
1747571327554835500,2.65883544921875,-0.0006108652451075613,0.0012217304902151227,-0.0006108652451075613
1747571327570796000,2.674796142578125,0.001832595793530345,-0.004886921960860491,0.0012217304902151227
1747571327586756400,2.69075634765625,-0.001832595793530345,-0.001832595793530345,0.003054326167330146
1747571327602747400,2.706747314453125,0.0006108652451075613,-0.004886921960860491,-0.0006108652451075613
1747571327618707700,2.722707763671875,-0.0006108652451075613,0,-0.0024434609804302454
1747571327634729200,2.738729248046875,0,-0.0006108652451075613,-0.001832595793530345
1747571327650659000,2.7546591796875,-0.003054326167330146,0.0006108652451075613,0.0012217304902151227
1747571327666650000,2.770650146484375,-0.003054326167330146,-0.0006108652451075613,-0.0006108652451075613
1747571327682610400,2.7866103515625,0.001832595793530345,-0.0012217304902151227,0
1747571327698601500,2.8026015625,-0.0006108652451075613,-0.001832595793530345,0.0012217304902151227
1747571327714592300,2.81859228515625,-0.0024434609804302454,0.0024434609804302454,-0.00427605677396059
1747571327730552800,2.834552734375,0,-0.0012217304902151227,0.003054326167330146
1747571327746513200,2.85051318359375,0.0012217304902151227,0.003054326167330146,0
1747571327762504200,2.866504150390625,-0.001832595793530345,-0.0024434609804302454,-0.0006108652451075613
1747571327778464500,2.882464599609375,-0.0006108652451075613,-0.001832595793530345,-0.0006108652451075613
1747571327794455600,2.89845556640625,0.0006108652451075613,0.0012217304902151227,-0.0006108652451075613
1747571327810416000,2.914416015625,-0.0012217304902151227,-0.0024434609804302454,-0.003054326167330146
1747571327826376400,2.93037646484375,0,-0.003054326167330146,0.0012217304902151227
1747571327842367500,2.946367431640625,0.00366519158706069,-0.0012217304902151227,-0.0006108652451075613
1747571327858327800,2.962327880859375,-0.001832595793530345,0.0012217304902151227,-0.0024434609804302454
1747571327874349300,2.978349365234375,0.00427605677396059,-0.0006108652451075613,-0.0006108652451075613
1747571327890279200,2.994279052734375,0.0024434609804302454,0.0006108652451075613,-0.0024434609804302454
1747571327906270200,3.010270263671875,-0.0012217304902151227,-0.00366519158706069,0.0012217304902151227
1747571327922261000,3.026260986328125,0,-0.0006108652451075613,-0.0012217304902151227
1747571327938221600,3.0422216796875,-0.001832595793530345,0.0012217304902151227,0
1747571327954212400,3.05821240234375,0.0006108652451075613,0.0012217304902151227,-0.0024434609804302454
1747571327970173000,3.0741728515625,0.0012217304902151227,-0.0024434609804302454,0.0012217304902151227
1747571327986133200,3.09013330078125,-0.00366519158706069,0.0006108652451075613,-0.001832595793530345
1747571328002124300,3.106124267578125,0.001832595793530345,-0.00427605677396059,0
1747571328018084600,3.122084716796875,0.001832595793530345,-0.0012217304902151227,-0.0006108652451075613
1747571328034106000,3.138106201171875,0.0006108652451075613,-0.0006108652451075613,0.0006108652451075613
1747571328050036000,3.154035888671875,-0.0006108652451075613,0.0006108652451075613,0.0006108652451075613
1747571328066027000,3.170027099609375,0.0012217304902151227,-0.003054326167330146,-0.003054326167330146
1747571328081987300,3.1859873046875,0.0012217304902151227,-0.0012217304902151227,-0.00366519158706069
1747571328097978400,3.201978271484375,0,-0.0024434609804302454,-0.001832595793530345
1747571328113969400,3.217969482421875,0,0,0
1747571328129929700,3.2339296875,0,0.0006108652451075613,0.001832595793530345
1747571328145890300,3.249890380859375,-0.0024434609804302454,-0.0012217304902151227,-0.0006108652451075613
1747571328161881000,3.265881103515625,0.0006108652451075613,-0.001832595793530345,-0.001832595793530345
1747571328177841700,3.281841552734375,0.00366519158706069,0.00366519158706069,-0.0024434609804302454
1747571328193832400,3.29783251953125,-0.0024434609804302454,0.0006108652451075613,-0.0006108652451075613
1747571328209793000,3.31379296875,0.0012217304902151227,0,-0.00427605677396059
1747571328225753300,3.32975341796875,0,0.0024434609804302454,0.00366519158706069
1747571328241744400,3.345744384765625,0,0.001832595793530345,0
1747571328257704700,3.36170458984375,-0.003054326167330146,-0.00427605677396059,0.0006108652451075613
1747571328273726200,3.377726318359375,0.0006108652451075613,-0.0006108652451075613,-0.0006108652451075613
1747571328289656000,3.393656005859375,-0.001832595793530345,-0.001832595793530345,0.001832595793530345
1747571328305647000,3.409647216796875,0.0024434609804302454,-0.00855211354792118,-0.0024434609804302454
1747571328321607400,3.425607421875,0,-0.0012217304902151227,0.0012217304902151227
1747571328337598500,3.441598388671875,0.0012217304902151227,-0.0024434609804302454,-0.0006108652451075613
1747571328353589500,3.457589599609375,-0.0006108652451075613,0.0006108652451075613,0.0024434609804302454
1747571328369519400,3.473519287109375,0.0012217304902151227,-0.001832595793530345,-0.0012217304902151227
1747571328385510400,3.489510498046875,-0.0012217304902151227,-0.005497787147760391,0.0012217304902151227
1747571328401470700,3.505470703125,0.0006108652451075613,-0.0012217304902151227,0.0006108652451075613
1747571328417461800,3.521461669921875,-0.0006108652451075613,-0.0012217304902151227,-0.0006108652451075613
1747571328433452500,3.53745263671875,0.0024434609804302454,-0.00366519158706069,-0.0012217304902151227
1747571328449413000,3.5534130859375,0,0.0012217304902151227,-0.0012217304902151227
1747571328465373400,3.56937353515625,0.0006108652451075613,0.001832595793530345,-0.004886921960860491
1747571328481364500,3.585364501953125,-0.001832595793530345,-0.001832595793530345,-0.001832595793530345
1747571328497324800,3.60132470703125,0.0012217304902151227,-0.0012217304902151227,-0.003054326167330146
1747571328513315800,3.61731591796875,0.0006108652451075613,-0.0024434609804302454,0.001832595793530345
1747571328529276200,3.633276123046875,0.0006108652451075613,-0.0024434609804302454,0.0012217304902151227
1747571328545267200,3.64926708984375,0,-0.001832595793530345,-0.001832595793530345
1747571328561227500,3.6652275390625,0.001832595793530345,0.001832595793530345,0.0006108652451075613
1747571328577218600,3.681218505859375,0.0006108652451075613,0.0024434609804302454,-0.003054326167330146
1747571328593209600,3.697209716796875,-0.0012217304902151227,0,0
1747571328609170000,3.713169921875,-0.0012217304902151227,-0.001832595793530345,-0.001832595793530345
1747571328625130200,3.729130126953125,-0.0006108652451075613,-0.001832595793530345,-0.001832595793530345
1747571328641121300,3.745121337890625,0,-0.00366519158706069,-0.0012217304902151227
1747571328657081900,3.761081787109375,-0.001832595793530345,-0.0024434609804302454,0
1747571328673103000,3.77710302734375,0.0012217304902151227,-0.00366519158706069,0.001832595793530345
1747571328689033200,3.793033203125,-0.0024434609804302454,0.0006108652451075613,-0.00427605677396059
1747571328705024000,3.80902392578125,0.0012217304902151227,0,-0.003054326167330146
1747571328721015000,3.82501513671875,0.001832595793530345,0.0006108652451075613,-0.001832595793530345
1747571328736975400,3.840975341796875,0,0,-0.003054326167330146
1747571328752966400,3.85696630859375,-0.0006108652451075613,-0.004886921960860491,-0.0024434609804302454
1747571328768926700,3.8729267578125,-0.0006108652451075613,-0.001832595793530345,-0.0012217304902151227
1747571328784917800,3.888917724609375,0.0006108652451075613,0.0006108652451075613,0
1747571328800878000,3.904878173828125,0,-0.0024434609804302454,-0.003054326167330146
1747571328816869000,3.920869140625,-0.0024434609804302454,-0.005497787147760391,0
1747571328832860200,3.936860107421875,0,-0.004886921960860491,-0.0006108652451075613
1747571328848820500,3.952820556640625,0.0006108652451075613,-0.00366519158706069,0.0012217304902151227
1747571328864811500,3.9688115234375,0.0012217304902151227,-0.0012217304902151227,-0.00366519158706069
1747571328880771800,3.984771728515625,0.0006108652451075613,0,0.0006108652451075613
1747571328896763000,4.000762939453125,0.0012217304902151227,0,0
1747571328912784400,4.016784423828125,0,0.0012217304902151227,-0.0012217304902151227
1747571328928714200,4.03271435546875,-0.0012217304902151227,0.001832595793530345,-0.0012217304902151227
1747571328944674600,4.048674560546875,0.0024434609804302454,0,0.001832595793530345
1747571328960665600,4.06466552734375,0,0.0012217304902151227,0
1747571328976656600,4.08065673828125,-0.00366519158706069,-0.003054326167330146,-0.0024434609804302454
1747571328992647400,4.0966474609375,0,-0.0024434609804302454,-0.0006108652451075613
1747571329016573000,4.120572998046875,0.0006108652451075613,0,-0.001832595793530345
1747571329032594400,4.136594482421875,-0.0024434609804302454,0,-0.0024434609804302454
1747571329048554800,4.1525546875,0.0012217304902151227,0.001832595793530345,-0.0024434609804302454
1747571329064515300,4.168515380859375,-0.0006108652451075613,-0.0024434609804302454,-0.004886921960860491
1747571329080506000,4.184506103515625,0.0006108652451075613,-0.0006108652451075613,0.001832595793530345
1747571329096466700,4.200466796875,0.0012217304902151227,0.0006108652451075613,-0.0012217304902151227
1747571329112488000,4.216488037109375,0.0012217304902151227,-0.0006108652451075613,-0.001832595793530345
1747571329128418000,4.23241796875,-0.0006108652451075613,-0.0012217304902151227,0.0012217304902151227
1747571329144408800,4.248408935546875,0.001832595793530345,0.0006108652451075613,-0.0024434609804302454
1747571329160400000,4.26439990234375,-0.0006108652451075613,0,0.0006108652451075613
1747571329176360200,4.280360107421875,-0.0006108652451075613,-0.0024434609804302454,-0.0006108652451075613
1747571329192381700,4.296381591796875,0,0.0012217304902151227,-0.0006108652451075613
1747571329208311600,4.3123115234375,-0.0006108652451075613,-0.0012217304902151227,-0.0012217304902151227
1747571329224302600,4.328302490234375,0.0006108652451075613,-0.0024434609804302454,0.0006108652451075613
1747571329240293600,4.344293701171875,0.001832595793530345,-0.001832595793530345,0
1747571329256254000,4.36025390625,0.0006108652451075613,0.0024434609804302454,-0.001832595793530345
1747571329272275500,4.376275390625,-0.0006108652451075613,0,0.001832595793530345
1747571329288205300,4.392205322265625,0.001832595793530345,0.0006108652451075613,-0.0006108652451075613
1747571329304196400,4.4081962890625,0.0012217304902151227,0.001832595793530345,0.0012217304902151227
1747571329320156700,4.42415673828125,-0.0012217304902151227,0.004886921960860491,0.001832595793530345
1747571329336147700,4.440147705078125,0.0012217304902151227,0.0012217304902151227,0.0012217304902151227
1747571329352138800,4.456138671875,0,-0.0024434609804302454,-0.0012217304902151227
1747571329368099000,4.47209912109375,-0.0024434609804302454,-0.0012217304902151227,0.0024434609804302454
1747571329384090000,4.488090087890625,0.0006108652451075613,-0.0006108652451075613,-0.0012217304902151227
1747571329400050400,4.504050537109375,0.0024434609804302454,0,0
1747571329416041500,4.52004150390625,0.0024434609804302454,0.00366519158706069,-0.0012217304902151227
1747571329432032300,4.5360322265625,0.001832595793530345,0.0006108652451075613,-0.0006108652451075613
1747571329447992800,4.551992919921875,-0.0006108652451075613,0.0012217304902151227,-0.0012217304902151227
1747571329463953200,4.567953125,0,-0.003054326167330146,0.0006108652451075613
1747571329479944200,4.583944091796875,-0.0012217304902151227,0,0.0006108652451075613
1747571329495935000,4.59993505859375,0.0024434609804302454,0.0006108652451075613,0.001832595793530345
1747571329511926000,4.615926025390625,0.0012217304902151227,-0.0024434609804302454,0.0006108652451075613
1747571329527886600,4.631886474609375,-0.0006108652451075613,0.0006108652451075613,-0.0012217304902151227
1747571329543847000,4.647846923828125,0.003054326167330146,0.0006108652451075613,0.0006108652451075613
1747571329559838000,4.663837890625,0.001832595793530345,0.00366519158706069,-0.001832595793530345
1747571329575798300,4.67979833984375,0.0006108652451075613,-0.0012217304902151227,-0.0006108652451075613
1747571329591819800,4.69581982421875,0,0.0012217304902151227,0
1747571329607780000,4.711780029296875,0.0012217304902151227,-0.0012217304902151227,0
1747571329623740700,4.72774072265625,0,-0.0012217304902151227,0.0012217304902151227
1747571329639731500,4.7437314453125,0.0024434609804302454,0.0024434609804302454,0.0006108652451075613
1747571329655692000,4.759692138671875,0.003054326167330146,0.001832595793530345,0.0024434609804302454
1747571329671713500,4.775713623046875,0.0006108652451075613,0.0012217304902151227,-0.0012217304902151227
1747571329687643400,4.791643310546875,0.0006108652451075613,-0.0006108652451075613,0.001832595793530345
1747571329703634400,4.807634521484375,-0.0024434609804302454,0.0024434609804302454,0.0012217304902151227
1747571329719625200,4.823625244140625,0.0006108652451075613,0.00427605677396059,-0.0006108652451075613
1747571329735585800,4.839585693359375,-0.0024434609804302454,-0.003054326167330146,0.0012217304902151227
1747571329751576600,4.85557666015625,0.0012217304902151227,-0.0012217304902151227,0.001832595793530345
1747571329767537200,4.871537109375,0,0.0012217304902151227,-0.0006108652451075613
1747571329783528000,4.88752783203125,-0.0012217304902151227,-0.0024434609804302454,-0.0006108652451075613
1747571329799488500,4.903488525390625,-0.0012217304902151227,0.001832595793530345,0.0006108652451075613
1747571329815479300,4.919479248046875,0.0012217304902151227,0.00366519158706069,-0.0012217304902151227
1747571329831470300,4.93547021484375,-0.001832595793530345,-0.0006108652451075613,-0.0012217304902151227
1747571329847430700,4.9514306640625,0,-0.0006108652451075613,0.0024434609804302454
1747571329863421700,4.967421630859375,0.001832595793530345,-0.003054326167330146,0.0006108652451075613
1747571329879382300,4.98338232421875,-0.0012217304902151227,-0.00366519158706069,-0.0006108652451075613
1747571329895373000,4.999373046875,0.0012217304902151227,0.0012217304902151227,0
1747571329911394600,5.01539453125,0,-0.0012217304902151227,-0.003054326167330146
1747571329927324400,5.031324462890625,0.0006108652451075613,-0.0012217304902151227,0.0006108652451075613
1747571329943315500,5.0473154296875,-0.001832595793530345,0,-0.0012217304902151227
1747571329959306200,5.06330615234375,0,-0.001832595793530345,-0.0006108652451075613
1747571329975266800,5.079266845703125,-0.001832595793530345,-0.0006108652451075613,0
1747571329991288300,5.095288330078125,0.0024434609804302454,0,0.0006108652451075613
1747571330007218200,5.11121826171875,0.0006108652451075613,-0.0006108652451075613,-0.0024434609804302454
1747571330023209200,5.127209228515625,0.0006108652451075613,0.0006108652451075613,-0.001832595793530345
1747571330039169500,5.14316943359375,-0.0006108652451075613,-0.0006108652451075613,0.001832595793530345
1747571330055160600,5.15916064453125,0.0006108652451075613,-0.001832595793530345,-0.0012217304902151227
1747571330071151400,5.1751513671875,0.0012217304902151227,-0.00427605677396059,0.0012217304902151227
1747571330087112000,5.19111181640625,0.0024434609804302454,0.0006108652451075613,-0.00427605677396059
1747571330103072300,5.207072265625,0,-0.0006108652451075613,-0.0006108652451075613
1747571330119063300,5.223063232421875,-0.001832595793530345,0,-0.0006108652451075613
1747571330135023600,5.239023681640625,0.0012217304902151227,0.0006108652451075613,-0.0012217304902151227
1747571330151045000,5.255045166015625,0.003054326167330146,-0.0012217304902151227,-0.001832595793530345
1747571330166975000,5.27097509765625,0.0006108652451075613,0,0.00366519158706069
1747571330182966000,5.286966064453125,0.0006108652451075613,-0.0006108652451075613,0.001832595793530345
1747571330198957000,5.30295703125,0.0006108652451075613,-0.00366519158706069,-0.0012217304902151227
1747571330214917400,5.31891748046875,0.0024434609804302454,0.0006108652451075613,-0.001832595793530345
1747571330230908400,5.334908447265625,-0.0012217304902151227,0,0.001832595793530345
1747571330246868700,5.35086865234375,0,-0.0006108652451075613,0
1747571330262859800,5.36685986328125,-0.0006108652451075613,-0.0012217304902151227,0.0024434609804302454
1747571330278820000,5.382820068359375,0.001832595793530345,0.001832595793530345,-0.001832595793530345
1747571330294811100,5.39881103515625,-0.0012217304902151227,0.0012217304902151227,0.0012217304902151227
1747571330310802000,5.414802001953125,0.00427605677396059,-0.0006108652451075613,0.0024434609804302454
1747571330326762500,5.430762451171875,0.0024434609804302454,0.00366519158706069,0
1747571330342722800,5.446722900390625,0.0006108652451075613,-0.00366519158706069,0
1747571330358713900,5.4627138671875,0.0012217304902151227,-0.0006108652451075613,-0.00366519158706069
1747571330374674200,5.478674072265625,0,-0.0006108652451075613,0.00366519158706069
1747571330390665200,5.494665283203125,0.001832595793530345,-0.0006108652451075613,-0.0012217304902151227
1747571330406625500,5.51062548828125,0.0024434609804302454,0.0012217304902151227,0.0012217304902151227
1747571330422616600,5.526616455078125,0.0006108652451075613,0.001832595793530345,-0.0006108652451075613
1747571330438577200,5.5425771484375,0.0012217304902151227,-0.003054326167330146,-0.001832595793530345
1747571330454568000,5.55856787109375,0.003054326167330146,-0.001832595793530345,-0.001832595793530345
1747571330470559000,5.57455908203125,-0.0006108652451075613,0.0024434609804302454,-0.0024434609804302454
1747571330486519300,5.590519287109375,0.001832595793530345,0.0006108652451075613,0.0006108652451075613
1747571330502480000,5.60647998046875,0,0.001832595793530345,0
1747571330518470700,5.622470703125,0,0.0006108652451075613,0.0012217304902151227
1747571330534431200,5.63843115234375,0.0006108652451075613,-0.001832595793530345,0
1747571330550422000,5.654422119140625,-0.0006108652451075613,0.0012217304902151227,-0.0024434609804302454
1747571330566382600,5.670382568359375,-0.0012217304902151227,-0.0012217304902151227,-0.0012217304902151227
1747571330582343000,5.686343017578125,0.0024434609804302454,-0.0012217304902151227,0.0006108652451075613
1747571330598334000,5.702333984375,0.0012217304902151227,-0.001832595793530345,-0.0006108652451075613
1747571330614294300,5.718294189453125,0.0006108652451075613,-0.003054326167330146,-0.0012217304902151227
1747571330630285300,5.734285400390625,0.0012217304902151227,-0.00427605677396059,0.0006108652451075613
1747571330646245600,5.75024560546875,-0.003054326167330146,0,-0.0012217304902151227
1747571330662206200,5.766206298828125,0,0.004886921960860491,-0.0024434609804302454
1747571330678197000,5.782197021484375,-0.0006108652451075613,0,-0.0012217304902151227
1747571330694157600,5.798157470703125,0,0.001832595793530345,-0.0006108652451075613
1747571330710148600,5.814148681640625,0.0006108652451075613,-0.001832595793530345,-0.0006108652451075613
1747571330726109000,5.83010888671875,-0.0006108652451075613,-0.0024434609804302454,0
1747571330742069200,5.8460693359375,-0.001832595793530345,0.00427605677396059,0
1747571330758060300,5.862060302734375,0.0006108652451075613,-0.001832595793530345,0.001832595793530345
1747571330774020600,5.8780205078125,0,-0.0012217304902151227,0
1747571330790011600,5.89401171875,0,-0.0024434609804302454,-0.003054326167330146
1747571330805972200,5.90997216796875,0.003054326167330146,0.0024434609804302454,-0.0012217304902151227
1747571330821963000,5.925962890625,-0.0012217304902151227,-0.003054326167330146,0.001832595793530345
1747571330837923600,5.941923583984375,-0.0012217304902151227,-0.003054326167330146,0
1747571330853884000,5.9578837890625,0,-0.0012217304902151227,0.0006108652451075613
1747571330869875000,5.973875,0,0.0006108652451075613,-0.00366519158706069
1747571330885835300,5.989835205078125,0.0024434609804302454,-0.0012217304902151227,-0.0012217304902151227
1747571330901795800,6.0057958984375,0.0012217304902151227,-0.0006108652451075613,0.0006108652451075613
1747571330917786600,6.02178662109375,0.0012217304902151227,0.0012217304902151227,0.0006108652451075613
1747571330933747200,6.037747314453125,0,-0.0006108652451075613,-0.001832595793530345
1747571330949738000,6.053738037109375,-0.001832595793530345,-0.0006108652451075613,0.0006108652451075613
1747571330965698600,6.069698486328125,-0.0006108652451075613,-0.004886921960860491,0.0012217304902151227
1747571330981689300,6.085689453125,0.0006108652451075613,-0.0024434609804302454,-0.0006108652451075613
1747571330997680400,6.101680419921875,0.003054326167330146,-0.0024434609804302454,0.0006108652451075613
1747571331013640700,6.117640625,-0.0006108652451075613,0.0012217304902151227,0
1747571331029631700,6.1336318359375,0.0012217304902151227,0.00366519158706069,-0.0024434609804302454
1747571331045592000,6.149592041015625,0.003054326167330146,-0.0012217304902151227,0
1747571331061583000,6.1655830078125,0.0024434609804302454,-0.0006108652451075613,0
1747571331077543400,6.18154345703125,0,-0.0006108652451075613,0.0012217304902151227
1747571331093534500,6.197534423828125,-0.0024434609804302454,-0.0024434609804302454,0.0024434609804302454
1747571331109525500,6.213525390625,-0.0024434609804302454,-0.0006108652451075613,0
1747571331125485800,6.22948583984375,0.0006108652451075613,0,0
1747571331141446400,6.2454462890625,0,-0.001832595793530345,0.0006108652451075613
1747571331157437200,6.261437255859375,0,-0.001832595793530345,-0.001832595793530345
1747571331173397800,6.277397705078125,0.0024434609804302454,0,-0.0006108652451075613
1747571331189419300,6.293419189453125,0,0,-0.0012217304902151227
1747571331205379600,6.309379638671875,-0.0012217304902151227,-0.0012217304902151227,0.0006108652451075613
1747571331221370600,6.32537060546875,0.001832595793530345,-0.003054326167330146,-0.0024434609804302454
1747571331237331000,6.3413310546875,0.0006108652451075613,0.0012217304902151227,-0.0024434609804302454
1747571331253322000,6.357322021484375,0.0012217304902151227,0,-0.0006108652451075613
1747571331269343500,6.373343505859375,-0.0024434609804302454,-0.00366519158706069,0.001832595793530345
1747571331285303800,6.3893037109375,0.0006108652451075613,-0.00427605677396059,-0.0012217304902151227
1747571331301264100,6.40526416015625,-0.0012217304902151227,-0.0012217304902151227,-0.003054326167330146
1747571331317255200,6.421255126953125,-0.001832595793530345,-0.0024434609804302454,-0.001832595793530345
1747571331333246200,6.43724609375,0.0012217304902151227,0,-0.00427605677396059
1747571331349237000,6.453237060546875,0.0012217304902151227,-0.00366519158706069,0.0006108652451075613
1747571331365197600,6.469197509765625,0.0006108652451075613,-0.001832595793530345,-0.0024434609804302454
1747571331381188400,6.485188232421875,0.0012217304902151227,0,-0.0012217304902151227
1747571331397179400,6.501179443359375,0.0024434609804302454,0.0024434609804302454,-0.00366519158706069
1747571331413139700,6.5171396484375,-0.0006108652451075613,-0.005497787147760391,-0.004886921960860491
1747571331429130800,6.533130859375,0.0024434609804302454,-0.001832595793530345,0.0006108652451075613
1747571331445091300,6.54909130859375,0,-0.0006108652451075613,-0.0006108652451075613
1747571331461082000,6.56508203125,0,-0.00366519158706069,0
1747571331477042700,6.581042724609375,0.0012217304902151227,0.0006108652451075613,0.0012217304902151227
1747571331493033500,6.597033447265625,0.0006108652451075613,0.00427605677396059,-0.006719517521560192
1747571331509024500,6.6130244140625,0.0024434609804302454,0.0024434609804302454,-0.001832595793530345
1747571331524984800,6.62898486328125,0.0012217304902151227,0.005497787147760391,-0.0012217304902151227
1747571331540975900,6.644975830078125,-0.0012217304902151227,0.003054326167330146,0.0006108652451075613
1747571331556967000,6.660966796875,0.0012217304902151227,0.003054326167330146,-0.003054326167330146
1747571331572927200,6.67692724609375,0.0024434609804302454,-0.0012217304902151227,-0.0006108652451075613
1747571331588918300,6.692918212890625,-0.001832595793530345,-0.00366519158706069,0.0006108652451075613
1747571331604878600,6.708878662109375,-0.0012217304902151227,-0.003054326167330146,0.001832595793530345
1747571331620869600,6.72486962890625,-0.0012217304902151227,0.001832595793530345,-0.0024434609804302454
1747571331636830000,6.740829833984375,-0.0006108652451075613,0.001832595793530345,-0.0012217304902151227
1747571331652821000,6.756821044921875,-0.0006108652451075613,-0.001832595793530345,0.0024434609804302454
1747571331668842500,6.772842529296875,0.001832595793530345,0,-0.0024434609804302454
1747571331684772400,6.7887724609375,-0.0024434609804302454,-0.0006108652451075613,0.001832595793530345
1747571331700763100,6.80476318359375,0.001832595793530345,-0.001832595793530345,0
1747571331716723700,6.8207236328125,-0.0024434609804302454,-0.0012217304902151227,-0.001832595793530345
1747571331732714800,6.83671484375,-0.0012217304902151227,0.0012217304902151227,-0.0006108652451075613
1747571331748705500,6.85270556640625,-0.001832595793530345,0.0012217304902151227,0.00427605677396059
1747571331764666000,6.868666015625,0.00366519158706069,0.003054326167330146,0.0006108652451075613
1747571331780626400,6.88462646484375,0.0012217304902151227,-0.001832595793530345,-0.0006108652451075613
1747571331796617500,6.900617431640625,0.003054326167330146,-0.0024434609804302454,-0.001832595793530345
1747571331812577800,6.916577880859375,0,-0.0012217304902151227,-0.0012217304902151227
1747571331828599300,6.932599365234375,0.0012217304902151227,0.00366519158706069,-0.001832595793530345
1747571331844559600,6.9485595703125,0.0024434609804302454,0.003054326167330146,-0.001832595793530345
1747571331860520200,6.964520263671875,-0.003054326167330146,0.0006108652451075613,0
1747571331876511000,6.980510986328125,0.0024434609804302454,-0.003054326167330146,0.0012217304902151227
1747571331892471600,6.996471435546875,0.0012217304902151227,-0.015271631069481373,-0.0006108652451075613
1747571331908493000,7.0124931640625,-0.0006108652451075613,-0.005497787147760391,-0.0024434609804302454
1747571331924423000,7.0284228515625,0.00366519158706069,0.001832595793530345,0.0006108652451075613
1747571331940414000,7.0444140625,-0.0006108652451075613,0.00855211354792118,0.0012217304902151227
1747571331956374300,7.060374267578125,0.0006108652451075613,-0.02015855349600315,-0.009773843921720982
1747571331972365300,7.076365234375,0.0006108652451075613,-0.015271631069481373,-0.005497787147760391
1747571331988356000,7.092356201171875,-0.0006108652451075613,-0.009773843921720982,0.001832595793530345
1747571332004316700,7.108316650390625,0.0012217304902151227,-0.00855211354792118,-0.0012217304902151227
1747571332020307500,7.124307373046875,-0.0006108652451075613,-0.019547687843441963,-0.005497787147760391
1747571332036268000,7.14026806640625,0.001832595793530345,-0.025656340643763542,-0.01038470957428217
1747571332052258800,7.1562587890625,0.0006108652451075613,-0.01160643994808197,-0.004886921960860491
1747571332068249900,7.172249755859375,0,-0.0006108652451075613,0
1747571332084210400,7.18821044921875,0.0006108652451075613,0.003054326167330146,0.00366519158706069
1747571332100170800,7.204170654296875,0.0006108652451075613,-0.003054326167330146,0
1747571332116161800,7.220161865234375,0,-0.03176499158143997,-0.00427605677396059
1747571332132122000,7.2361220703125,0.001832595793530345,-0.009773843921720982,0.0006108652451075613
1747571332148113200,7.252113037109375,0.006108652334660292,0.031154127791523933,-0.012217304669320583
1747571332164073500,7.268073486328125,0.0012217304902151227,0.006108652334660292,-0.003054326167330146
1747571332180064500,7.284064453125,0.003054326167330146,-0.001832595793530345,-0.001832595793530345
1747571332196024800,7.30002490234375,0.0024434609804302454,-0.01038470957428217,-0.004886921960860491
1747571332212015900,7.316015869140625,0.001832595793530345,-0.025656340643763542,-0.009162978269159794
1747571332228006700,7.332006591796875,0.00366519158706069,-0.02687807008624077,-0.0012217304902151227
1747571332243967200,7.34796728515625,0.0024434609804302454,0.0012217304902151227,0.001832595793530345
1747571332259927600,7.363927490234375,0.007941247895359993,0.05009094998240471,0.01160643994808197
1747571332275918600,7.379918701171875,0.1160643994808197,-0.0555887371301651,-0.009773843921720982
1747571332291879000,7.39587890625,0.8949176073074341,-0.03298672288656235,-0.00427605677396059
1747571332307870000,7.411869873046875,0.8704829812049866,-0.09896016865968704,-0.01771509274840355
1747571332323830300,7.427830322265625,0.5864306092262268,-0.030543262138962746,0.00427605677396059
1747571332339821300,7.4438212890625,0.3695734739303589,0.018325956538319588,0.012217304669320583
1747571332355781600,7.45978173828125,0.10201449692249298,0.02076941914856434,0.02015855349600315
1747571332371772700,7.475772705078125,0.02871066704392433,0.02871066704392433,0.021991148591041565
1747571332387763700,7.491763671875,0.003054326167330146,-0.05925392732024193,-0.02076941914856434
1747571332403724000,7.50772412109375,0.00366519158706069,-0.00855211354792118,-0.006719517521560192
1747571332419684600,7.5236845703125,0,0.0006108652451075613,-0.00855211354792118
1747571332435675400,7.53967529296875,0.0012217304902151227,0.06230825558304787,0.00366519158706069
1747571332451636000,7.555635986328125,-0.018936822190880775,0.07696902006864548,0.022602014243602753
1747571332467657500,7.571657470703125,0.021991148591041565,-0.09407325088977814,-0.006108652334660292
1747571332483587300,7.58758740234375,-0.19120082259178162,0.03176499158143997,0.03237585723400116
1747571332499578000,7.603578125,-0.40133845806121826,0.025045474991202354,0.01710422709584236
1747571332515538700,7.61953857421875,-0.2926044464111328,0.051312681287527084,0.012217304669320583
1747571332531529500,7.635529541015625,-0.07757988572120667,-0.018936822190880775,-0.006108652334660292
1747571332547520500,7.6515205078125,0,0.021380282938480377,0
1747571332563481000,7.667481201171875,-0.028099801391363144,-0.07696902006864548,-0.027488935738801956
1747571332579472000,7.683471923828125,-0.25045475363731384,0.009773843921720982,0.001832595793530345
1747571332595463000,7.699462890625,-0.3903428912162781,-0.029932396486401558,0.0006108652451075613
1747571332611423200,7.71542333984375,-0.5119050741195679,-0.1313360333442688,-0.02015855349600315
1747571332627444700,7.73144482421875,-0.5644394755363464,-0.35552358627319336,-0.02321287989616394
1747571332643374600,7.74737451171875,-0.41599923372268677,-0.5754350423812866,-0.01038470957428217
1747571332659365600,7.76336572265625,-0.18570303916931152,-0.5216789245605469,-0.0012217304902151227
1747571332675356700,7.779356689453125,0.26939156651496887,-0.4550946056842804,0.016493361443281174
1747571332691317000,7.79531689453125,0.47708576917648315,-0.685390830039978,0.04214970022439957
1747571332707308000,7.81130810546875,0.5668829679489136,-0.8692612648010254,-0.009773843921720982
1747571332723268400,7.827268310546875,0.8533787727355957,-1.3060299158096313,-0.07452555745840073
1747571332739259400,7.84325927734375,1.5821410417556763,-2.0415115356445312,0.10262536257505417
1747571332755250200,7.859250244140625,2.0586159229278564,-2.792264938354492,0.31093040108680725
1747571332771210800,7.875210693359375,1.567480206489563,-2.39214825630188,0.394618958234787
1747571332787232300,7.891232177734375,1.1099421977996826,-1.7299703359603882,0.23518311977386475
1747571332803162000,7.907162109375,0.3885102868080139,-0.6707300543785095,-0.10934487730264664
1747571332819153200,7.923153076171875,-0.10506882518529892,0.23884831368923187,-0.6823364496231079
1747571332835144000,7.93914404296875,-0.31154128909111023,0.5955936312675476,-0.8839219808578491
1747571332851104500,7.9551044921875,-0.3854559659957886,0.5955936312675476,-0.6579018831253052
1747571332867125800,7.971125732421875,-0.26083946228027344,0.7470881938934326,-0.2993239760398865
1747571332883086300,7.98708642578125,-0.14477506279945374,0.8289441466331482,0.051312681287527084
1747571332899046700,8.003046630859375,-0.031154127791523933,0.6340781450271606,0.39645153284072876
1747571332915037700,8.01903759765625,0.09162978827953339,0.1966986060142517,0.6035348773002625
1747571332931028700,8.03502880859375,0.07147123664617538,-0.16432274878025055,0.6982190012931824
1747571332947019500,8.05101953125,-0.0354301854968071,-0.04398229718208313,0.7189884185791016
1747571332962980000,8.06697998046875,-0.2028072625398636,0.5021312236785889,0.6383541822433472
1747571332978971000,8.082970947265625,-0.3689626157283783,1.0195341110229492,0.43737950921058655
1747571332994931500,8.098931396484375,-0.42088615894317627,1.2907582521438599,0.14844025671482086
1747571333010922200,8.114922119140624,-0.45326200127601624,1.0806206464767456,-0.03176499158143997
1747571333026943700,8.13094384765625,-0.4495968222618103,0.7373143434524536,-0.06841690838336945
1747571333042904300,8.146904296875,-0.33047810196876526,0.6914994716644287,0.02932153269648552
1747571333058864600,8.16286474609375,-0.15332718193531036,0.9285151958465576,0.1722639948129654
1747571333074855700,8.178855712890625,-0.051312681287527084,0.9859365224838257,0.2541199326515198
1747571333090846500,8.194846435546875,0.02076941914856434,1.007927656173706,0.16798794269561768
1747571333106837500,8.21083740234375,-0.0012217304902151227,0.8790351152420044,0.07757988572120667
1747571333122797800,8.2267978515625,-0.05375614017248154,0.5613851547241211,0.10384709388017654
1747571333138788900,8.242788818359376,-0.12217304855585098,0.24617868661880493,0.16798794269561768
1747571333154780000,8.25877978515625,-0.17898350954055786,0.25045475363731384,0.1270599663257599
1747571333170740200,8.274740234375,-0.16798794269561768,0.45875978469848633,-0.07635815441608429
1747571333186761700,8.29076171875,-0.09162978827953339,0.4862487316131592,-0.33169981837272644
1747571333202722000,8.30672216796875,0.009162978269159794,0.303600013256073,-0.5051855444908142
1747571333218713000,8.322713134765625,0.08002334833145142,-0.02932153269648552,-0.35735616087913513
1747571333234673400,8.33867333984375,0.1459967941045761,-0.31459560990333557,-0.0708603709936142
1747571333250664400,8.35466455078125,0.15332718193531036,-0.6310238242149353,0.13500121235847473
1747571333266686000,8.37068603515625,0.15332718193531036,-0.5119050741195679,0.09346238523721695
1747571333282646300,8.386646240234375,0.09285151958465576,-0.3500257730484009,-0.02076941914856434
1747571333298606800,8.40260693359375,0.04092797264456749,-0.033597588539123535,-0.07757988572120667
1747571333314597600,8.41859765625,-0.009162978269159794,0.17409659922122955,-0.09224065393209457
1747571333330588700,8.434588623046874,-0.08918632566928864,-0.054367005825042725,-0.09285151958465576
1747571333346579700,8.450579833984374,-0.1667662113904953,-0.4954117238521576,-0.08552113175392151
1747571333362540000,8.4665400390625,-0.18081611394882202,-0.7605272531509399,-0.04153883829712868
1747571333378531000,8.482531005859375,-0.19364428520202637,-0.8332201838493347,-0.09346238523721695
1747571333394521900,8.49852197265625,-0.19058994948863983,-0.6407976150512695,-0.2528982162475586
1747571333410513000,8.514512939453125,-0.1667662113904953,-0.3793473243713379,-0.3793473243713379
1747571333426504000,8.53050390625,-0.13072516024112701,-0.12767083942890167,-0.32681289315223694
1747571333442464300,8.54646435546875,-0.1258382350206375,0.12217304855585098,-0.16554448008537292
1747571333458424800,8.5624248046875,-0.11301007121801376,0.09224065393209457,0.027488935738801956
1747571333474415600,8.57841552734375,-0.0555887371301651,-0.12461651116609573,0.15821409225463867
1747571333490406700,8.59440673828125,0.07269296050071716,-0.3323107063770294,0.19425514340400696
1747571333506397400,8.6103974609375,0.2076941877603531,-0.37629300355911255,0.24373523890972137
1747571333522358000,8.62635791015625,0.342695415019989,-0.22663100063800812,0.27000242471694946
1747571333538318300,8.642318359375,0.3481931984424591,-0.03787364438176155,0.22357667982578278
1747571333554309400,8.658309326171874,0.23090706765651703,0.14416420459747314,0.16982053220272064
1747571333570269700,8.674269775390625,0.039706241339445114,0.22357667982578278,0.1966986060142517
1747571333586291200,8.690291259765624,-0.10018189996480942,0.24678955972194672,0.2620611786842346
1747571333602221000,8.706220947265624,-0.1007927656173706,0.23945917189121246,0.28466320037841797
1747571333618212000,8.722212158203124,-0.006719517521560192,0.25106561183929443,0.26633724570274353
1747571333634172700,8.738172607421875,0.05925392732024193,0.251676470041275,0.21441370248794556
1747571333650163500,8.75416357421875,0.07696902006864548,0.2028072625398636,0.10873401165008545
1747571333666154500,8.770154541015625,0.08491026610136032,0.15271630883216858,0.04398229718208313
1747571333682114800,8.78611474609375,0.042760565876960754,0.1258382350206375,0.04886921867728233
1747571333698075400,8.802075439453125,0.00733038317412138,0.11362093687057495,0.013439035043120384
1747571333714066200,8.818066162109375,0.00855211354792118,0.14049901068210602,-0.06352998316287994
1747571333730057200,8.83405712890625,0.0555887371301651,0.2076941877603531,-0.11239920556545258
1747571333746048300,8.85004833984375,0.09224065393209457,0.30115658044815063,-0.11789698898792267
1747571333762008600,8.866008544921876,0.07696902006864548,0.3280346393585205,-0.10506882518529892
1747571333777999600,8.88199951171875,0.04886921867728233,0.28588494658470154,-0.08491026610136032
1747571333793960000,8.8979599609375,0.06658431142568588,0.13500121235847473,-0.00855211354792118
1747571333809920500,8.91392041015625,0.1472185254096985,-0.006108652334660292,0.06780604273080826
1747571333825941800,8.929941650390624,0.2278527319431305,-0.10934487730264664,0.06841690838336945
1747571333841902300,8.94590234375,0.2278527319431305,-0.09957103431224823,-0.009773843921720982
1747571333857862700,8.961862548828124,0.16310101747512817,0.006719517521560192,-0.08857546001672745
1747571333873853700,8.977853759765624,0.09224065393209457,0.16920967400074005,-0.10384709388017654
1747571333889814000,8.99381396484375,0.012217304669320583,0.33475416898727417,-0.11972958594560623
1747571333905835500,9.00983544921875,-0.04581489413976669,0.375071257352829,-0.1472185254096985
1747571333921765400,9.025765380859376,-0.03726277872920036,0.2785545587539673,-0.1918116807937622
1747571333937756400,9.04175634765625,0.051312681287527084,0.08491026610136032,-0.19058994948863983
1747571333953747500,9.05774755859375,0.13988813757896423,-0.14294247329235077,-0.1270599663257599
1747571333969707800,9.073707763671875,0.11789698898792267,-0.19975294172763824,-0.07330382615327835
1747571333985729300,9.089729248046876,0.08124507963657379,-0.06169738993048668,-0.1007927656173706
1747571334001689600,9.105689697265625,0.07147123664617538,0.06780604273080826,-0.12278391420841217
1747571334017650200,9.121650146484376,0.054367005825042725,0.1661553531885147,-0.1270599663257599
1747571334033641000,9.137640869140625,-0.031154127791523933,0.22846360504627228,-0.10934487730264664
1747571334049632000,9.153632080078125,-0.1270599663257599,0.2785545587539673,-0.10323622822761536
1747571334065623000,9.169623046875,-0.1875356286764145,0.20952677726745605,-0.05619960278272629
1747571334081583400,9.185583251953124,-0.16920967400074005,0.10567969083786011,0.06841690838336945
1747571334097574400,9.201574462890624,-0.03237585723400116,0.03481931984424591,0.1771509200334549
1747571334113534700,9.21753466796875,0.09651670604944229,-0.036041051149368286,0.1771509200334549
1747571334129525800,9.23352587890625,0.16982053220272064,-0.06169738993048668,0.06414084881544113
1747571334145516500,9.2495166015625,0.22540926933288574,-0.0012217304902151227,-0.08246681094169617
1747571334161477000,9.26547705078125,0.23151792585849762,0.04092797264456749,-0.1368338167667389
1747571334177468200,9.28146826171875,0.1667662113904953,0.028099801391363144,-0.10934487730264664
1747571334193459000,9.297458984375,0.1007927656173706,-0.001832595793530345,-0.06291911751031876
1747571334209419500,9.31341943359375,0.06963863968849182,-0.025045474991202354,-0.0024434609804302454
1747571334225440800,9.329440673828126,0.009162978269159794,-0.0910189226269722,0.07819075137376785
1747571334241401300,9.3454013671875,-0.06719517707824707,-0.1014036312699318,0.13805554807186127
1747571334257392400,9.361392333984375,-0.14049901068210602,-0.02321287989616394,0.24068090319633484
1747571334273352700,9.377352783203126,-0.060475658625364304,0.04642575979232788,0.30482175946235657
1747571334289343700,9.39334375,0.0910189226269722,0.2736676335334778,0.2638937830924988
1747571334305334500,9.40933447265625,0.12828169763088226,0.20586158335208893,0.14416420459747314
1747571334321295000,9.425295166015625,0.27977627515792847,-0.13744467496871948,0.001832595793530345
1747571334337286000,9.441285888671874,0.2632829248905182,-0.2571742534637451,-0.2687807083129883
1747571334353246500,9.45724658203125,0.22968533635139465,-0.24984388053417206,-0.32070425152778625
1747571334369237200,9.4732373046875,0.14049901068210602,0.10934487730264664,-0.1869247704744339
1747571334385258800,9.4892587890625,-0.39645153284072876,0.10567969083786011,-0.03298672288656235
1747571334401188600,9.505188720703124,-0.6279694437980652,0.4447098970413208,-0.06230825558304787
1747571334417179600,9.5211796875,-0.4343251883983612,0.6120869517326355,-0.042760565876960754
1747571334433170700,9.537170654296874,-0.004886921960860491,0.37751471996307373,-0.06230825558304787
1747571334449131000,9.553131103515625,0.2919935882091522,0.04214970022439957,-0.19914206862449646
1747571334465152500,9.569152587890626,0.31031954288482666,-0.16249015927314758,-0.15271630883216858
1747571334481082400,9.585082275390626,0.04764748737215996,-0.3274237811565399,0.11911872029304504
1747571334497073400,9.601073486328126,-0.17348572611808777,-0.252287358045578,0.3066543638706207
1747571334513064200,9.617064208984376,-0.09468411654233932,-0.02626720629632473,0.28649580478668213
1747571334529055200,9.63305517578125,0.08246681094169617,0.07147123664617538,0.07513642311096191
1747571334545046300,9.64904638671875,0.23151792585849762,-0.0403171069920063,-0.20525072515010834
1747571334561006600,9.665006591796875,0.1007927656173706,-0.11728613078594208,-0.19853121042251587
1747571334576967200,9.68096728515625,-0.09346238523721695,-0.08429940044879913,-0.01710422709584236
1747571334592958000,9.6969580078125,-0.23457226157188416,0.02321287989616394,0.11301007121801376
1747571334608949000,9.712948974609375,-0.17287486791610718,0.17348572611808777,0.1820378452539444
1747571334624940000,9.72893994140625,0.10690141469240189,0.28038713335990906,0.2015855312347412
1747571334640900400,9.744900390625,0.28649580478668213,-0.07269296050071716,0.23884831368923187
1747571334656860700,9.760860595703125,0.4349360466003418,-0.23273965716362,0.06536258012056351
1747571334672851700,9.776851806640625,0.1716531366109848,-0.4550946056842804,-0.0403171069920063
1747571334688812000,9.79281201171875,-0.13805554807186127,-0.4141666293144226,0.04764748737215996
1747571334704803000,9.808802978515626,-0.2474004179239273,-0.12339477986097336,0.16798794269561768
1747571334720763600,9.824763671875,-0.13316862285137177,0.09346238523721695,0.08796459436416626
1747571334736754400,9.84075439453125,-0.1362229436635971,-0.06414084881544113,0.07269296050071716
1747571334752715000,9.856715087890626,0.1771509200334549,0.24984388053417206,-0.2321287989616394
1747571334768705800,9.872705810546876,0.2021963894367218,0.09896016865968704,-0.3292563557624817
1747571334784696800,9.88869677734375,0.16859880089759827,0.18325957655906677,-0.30115658044815063
1747571334800657200,9.9046572265625,0.15027284622192383,0.21624629199504852,-0.19975294172763824
1747571334816648200,9.920648193359375,-0.07391469180583954,0.2168571650981903,-0.007941247895359993
1747571334832608500,9.9366083984375,-0.26633724570274353,0.23945917189121246,0.09224065393209457
1747571334848599600,9.952599609375,-0.33719760179519653,0.32498031854629517,0.02871066704392433
1747571334864621000,9.96862109375,-0.32131510972976685,0.5247332453727722,0.036651913076639175
1747571334880551000,9.984551025390624,-0.18631389737129211,0.49785518646240234,-0.024434609338641167
1747571334896572400,10.000572509765625,-0.04948008432984352,0.4386012554168701,-0.0757472887635231
1747571334912563500,10.0165634765625,0.028099801391363144,0.2889392673969269,-0.01160643994808197
1747571334928523800,10.032523681640624,0.039706241339445114,0.11789698898792267,0.16859880089759827
1747571334944545300,10.048545166015625,0.06352998316287994,-0.013439035043120384,0.4147774875164032
1747571334960505600,10.064505615234374,0.0959058403968811,-0.08918632566928864,0.5705481171607971
1747571334976466200,10.080466064453125,0.08368854224681854,-0.1417207419872284,0.5516113042831421
1747571334992457000,10.09645703125,0.05314527451992035,-0.1667662113904953,0.3744603991508484
1747571335008417500,10.11241748046875,0.045204028487205505,-0.18081611394882202,0.21563543379306793
1747571335024439000,10.12843896484375,-0.018936822190880775,-0.19486601650714874,0.12095131725072861
1747571335040399400,10.1443994140625,-0.09651670604944229,-0.1362229436635971,0.16249015927314758
1747571335056390400,10.160390380859376,-0.09346238523721695,-0.10934487730264664,0.29138273000717163
1747571335072350700,10.176350830078125,-0.08674286305904388,-0.07208210229873657,0.30054569244384766
1747571335088311300,10.192311279296876,-0.028099801391363144,-0.04398229718208313,0.13561208546161652
1747571335104332500,10.20833251953125,0.03237585723400116,-0.031154127791523933,0.0006108652451075613
1747571335120262700,10.2242626953125,0.12095131725072861,0.039095375686883926,-0.06352998316287994
1747571335136253400,10.24025341796875,0.17959438264369965,0.08857546001672745,-0.1771509200334549
1747571335152214000,10.256214111328125,0.20036379992961884,0.00366519158706069,-0.22540926933288574
1747571335168204800,10.272204833984375,0.1661553531885147,-0.2119702398777008,-0.20097467303276062
1747571335184195800,10.28819580078125,0.14844025671482086,-0.31031954288482666,-0.1618792861700058
1747571335200156200,10.30415625,0.15271630883216858,-0.384845107793808,-0.018936822190880775
1747571335216116700,10.32011669921875,0.17043140530586243,-0.36224308609962463,0.06536258012056351
1747571335232107500,10.336107421875,0.18325957655906677,-0.3543018400669098,0.08491026610136032
1747571335248068000,10.352068115234376,0.2321287989616394,-0.34513887763023376,0.014049900695681572
1747571335264089600,10.368089599609375,0.304210901260376,-0.2828305959701538,-0.18020524084568024
1747571335280019500,10.38401953125,0.342695415019989,-0.375071257352829,-0.45875978469848633
1747571335296010500,10.400010498046875,0.3787364661693573,-0.3689626157283783,-0.6823364496231079
1747571335312001300,10.416001220703125,0.22540926933288574,-0.4245513379573822,-0.5070181488990784
1747571335327961900,10.4319619140625,0.27611109614372253,-0.5186246037483215,-0.28038713335990906
1747571335343952600,10.44795263671875,0.37629300355911255,-0.37629300355911255,-0.15393804013729095
1747571335359913200,10.463913330078125,0.44837507605552673,-0.32559117674827576,-0.12950342893600464
1747571335375904000,10.479904052734375,0.3952298164367676,-0.3433062732219696,-0.13439035415649414
1747571335391864600,10.495864501953125,0.21380282938480377,-0.18631389737129211,-0.07696902006864548
1747571335407855400,10.51185546875,0.09162978827953339,-0.005497787147760391,0.0354301854968071
1747571335423846400,10.527846435546875,0.03237585723400116,0.11423180252313614,0.00855211354792118
1747571335439807000,10.543806884765624,-0.12339477986097336,0.025656340643763542,-0.21563543379306793
1747571335455797800,10.5597978515625,-0.35552358627319336,0.08002334833145142,-0.2974913716316223
1747571335471758300,10.57575830078125,-0.21563543379306793,0.12400564551353455,-0.578489363193512
1747571335487749000,10.5917490234375,-0.054367005825042725,0.2742784917354584,-0.6236934065818787
1747571335503740200,10.607740234375,-0.07757988572120667,0.12461651116609573,-0.5595525503158569
1747571335519700500,10.623700439453126,-0.17287486791610718,0.13927727937698364,-0.4300491213798523
1747571335535691500,10.63969140625,-0.14538592100143433,0.14966198801994324,-0.27611109614372253
1747571335551651800,10.65565185546875,-0.030543262138962746,0.07330382615327835,-0.18997909128665924
1747571335567643000,10.671642822265625,-0.005497787147760391,-0.03298672288656235,-0.29138273000717163
1747571335583634000,10.687634033203125,0.0024434609804302454,0.08491026610136032,-0.32009339332580566
1747571335599594200,10.70359423828125,-0.09224065393209457,0.21807889640331268,-0.18509216606616974
1747571335615554800,10.719554931640625,-0.14966198801994324,0.47219884395599365,-0.025656340643763542
1747571335631545600,10.735545654296875,-0.16432274878025055,0.4990769028663635,0.0806342139840126
1747571335647536600,10.75153662109375,-0.12461651116609573,0.4001167416572571,-0.027488935738801956
1747571335663527400,10.76752734375,-0.0555887371301651,0.31459560990333557,-0.1973094791173935
1747571335679488000,10.783488037109375,-0.039095375686883926,0.2370157092809677,-0.20891591906547546
1747571335695448300,10.7994482421875,-0.08429940044879913,0.20891591906547546,-0.11728613078594208
1747571335711439400,10.815439453125,-0.10018189996480942,0.28955012559890747,-0.0659734457731247
1747571335727430400,10.831430419921874,-0.09285151958465576,0.33047810196876526,-0.09651670604944229
1747571335743421200,10.847421142578124,-0.0555887371301651,0.3597996234893799,-0.10995574295520782
1747571335759381800,10.8633818359375,-0.04703662544488907,0.34697145223617554,-0.059864792972803116
1747571335775342000,10.879342041015626,-0.13316862285137177,0.3188716471195221,-0.039706241339445114
1747571335791333000,10.8953330078125,-0.17837265133857727,0.2785545587539673,-0.02871066704392433
1747571335807324000,10.911323974609376,-0.11056660860776901,0.16920967400074005,-0.01038470957428217
1747571335823315000,10.92731494140625,-0.03481931984424591,0.12217304855585098,-0.05925392732024193
1747571335839275300,10.943275146484375,0.024434609338641167,0.0507018156349659,-0.07208210229873657
1747571335855266300,10.959266357421875,0.01466076634824276,0.03420845419168472,-0.09162978827953339
1747571335871226600,10.9752265625,-0.006719517521560192,0.07819075137376785,-0.04214970022439957
1747571335887217700,10.9912177734375,-0.031154127791523933,0.08368854224681854,0.00427605677396059
1747571335903208700,11.007208740234375,-0.04764748737215996,0.06475171446800232,-0.08185594528913498
1747571335919169000,11.0231689453125,-0.04092797264456749,0.07819075137376785,-0.15271630883216858
1747571335935160000,11.03916015625,-0.005497787147760391,0.16859880089759827,-0.16310101747512817
1747571335951120400,11.055120361328125,0.007941247895359993,0.22907446324825287,-0.1411098688840866
1747571335967111400,11.071111328125,0.016493361443281174,0.1411098688840866,-0.09651670604944229
1747571335983102500,11.0871025390625,-0.003054326167330146,0.04642575979232788,-0.060475658625364304
1747571335999062800,11.103062744140624,0.02015855349600315,-0.024434609338641167,-0.039095375686883926
1747571336015053800,11.1190537109375,0.07452555745840073,-0.09957103431224823,-0.02932153269648552
1747571336031044600,11.135044677734374,0.1111774742603302,-0.13988813757896423,-0.00855211354792118
1747571336047005200,11.151005126953125,0.1313360333442688,-0.13561208546161652,0.00733038317412138
1747571336063026700,11.167026611328126,0.08491026610136032,-0.0806342139840126,-0.01771509274840355
1747571336078987000,11.182987060546875,0.04764748737215996,-0.039095375686883926,-0.02321287989616394
1747571336094947300,11.198947265625,0.02932153269648552,-0.0006108652451075613,-0.03176499158143997
1747571336110938400,11.2149384765625,0.060475658625364304,-0.021380282938480377,-0.054367005825042725
1747571336126929400,11.230929443359376,0.12339477986097336,-0.0555887371301651,-0.08674286305904388
1747571336142920200,11.246920166015625,0.18020524084568024,-0.056810468435287476,-0.16859880089759827
1747571336158880800,11.262880859375,0.20097467303276062,-0.14844025671482086,-0.1771509200334549
1747571336174871600,11.27887158203125,0.1270599663257599,-0.18936823308467865,-0.09712757170200348
1747571336190862600,11.294862548828124,0.03176499158143997,-0.10323622822761536,-0.005497787147760391
1747571336206823000,11.310822998046875,-0.01710422709584236,-0.04764748737215996,0.06169738993048668
1747571336222844400,11.326844482421874,0.009773843921720982,-0.06169738993048668,0.11362093687057495
1747571336238805000,11.342804931640625,0.0507018156349659,-0.15515977144241333,0.08307767659425735
1747571336254765300,11.358765380859374,0.0910189226269722,-0.2064724564552307,0.02076941914856434
1747571336270756400,11.37475634765625,0.15027284622192383,-0.22540926933288574,0.019547687843441963
1747571336286777900,11.39077783203125,0.21930062770843506,-0.2535090744495392,-0.007941247895359993
1747571336302738200,11.40673828125,0.21624629199504852,-0.27000242471694946,-0.11423180252313614
1747571336318698500,11.422698486328125,0.11362093687057495,-0.28649580478668213,-0.20952677726745605
1747571336334689500,11.438689453125,0.02076941914856434,-0.08429940044879913,-0.31154128909111023
1747571336350650000,11.454650146484376,0.04214970022439957,0.10751228034496307,-0.2968805134296417
1747571336366641000,11.470640869140626,0.12522737681865692,0.09407325088977814,-0.22296582162380219
1747571336382662400,11.486662353515625,0.14233160018920898,-0.07269296050071716,-0.1472185254096985
1747571336398592300,11.50259228515625,0.06230825558304787,-0.059864792972803116,-0.07391469180583954
1747571336414583300,11.518583251953125,-0.03176499158143997,0.09346238523721695,0.02932153269648552
1747571336430574300,11.53457421875,-0.07269296050071716,0.20586158335208893,0.08307767659425735
1747571336446565000,11.550565185546875,-0.04581489413976669,0.20891591906547546,0.06719517707824707
1747571336462556200,11.56655615234375,-0.006719517521560192,0.05192354694008827,0.02687807008624077
1747571336478516500,11.5825166015625,-0.0006108652451075613,-0.04459316283464432,-0.009773843921720982
1747571336494507500,11.598507568359375,-0.01771509274840355,-0.04153883829712868,0.009162978269159794
1747571336510498600,11.61449853515625,-0.01038470957428217,0.06169738993048668,0.0507018156349659
1747571336526459000,11.630458984375,-0.012217304669320583,0.060475658625364304,0.06841690838336945
1747571336542480400,11.64648046875,0.07208210229873657,0.03787364438176155,0.08491026610136032
1747571336558440700,11.662440673828126,0.1258382350206375,-0.03848451003432274,0.10812314599752426
1747571336574401300,11.6784013671875,0.12522737681865692,-0.1160643994808197,0.11178833991289139
1747571336590392000,11.69439208984375,0.06841690838336945,-0.08979719132184982,0.1362229436635971
1747571336606383000,11.710383056640625,0.015882495790719986,0.01771509274840355,0.14538592100143433
1747571336622374100,11.7263740234375,0.001832595793530345,0.11911872029304504,0.1014036312699318
1747571336638334500,11.74233447265625,0.001832595793530345,0.19608774781227112,0.013439035043120384
1747571336654325500,11.758325439453126,-0.012217304669320583,0.1966986060142517,-0.06230825558304787
1747571336670316300,11.77431640625,0.00855211354792118,0.12889257073402405,-0.06658431142568588
1747571336686307300,11.790307373046875,0.028099801391363144,0.07269296050071716,-0.03481931984424591
1747571336702298400,11.80629833984375,0.05253441259264946,0.1466076523065567,0.07452555745840073
1747571336718258700,11.8222587890625,0.021991148591041565,0.09834930300712585,0.15760323405265808
1747571336734249700,11.838249755859374,-0.00366519158706069,0.08124507963657379,0.09162978827953339
1747571336750210000,11.8542099609375,0.06902777403593063,0.242513507604599,0.025045474991202354
1747571336766201000,11.870201171875,0.3023782968521118,0.23640485107898712,-0.05803219974040985
1747571336782222600,11.88622265625,0.5009095072746277,-0.015882495790719986,-0.08674286305904388
1747571336798152400,11.90215234375,0.513126790523529,-0.05497787147760391,-0.14233160018920898
1747571336814143200,11.918143310546874,0.3927863538265228,0.012828170321881771,-0.0708603709936142
1747571336830134300,11.93413427734375,0.2168571650981903,0.16249015927314758,-0.02076941914856434
1747571336846094600,11.950094482421875,0.14294247329235077,0.14844025671482086,-0.013439035043120384
1747571336862116000,11.9661162109375,0.14538592100143433,0.05864306539297104,-0.11667526513338089
1747571336878076700,11.98207666015625,0.19120082259178162,-0.14905111491680145,-0.2070833146572113
1747571336894037000,11.998037109375,0.12828169763088226,-0.22296582162380219,-0.16004669666290283
1747571336910028000,12.014028076171876,-0.033597588539123535,0.01466076634824276,-0.021991148591041565
1747571336926018800,12.030018798828126,-0.14355333149433136,0.2883284091949463,-0.014049900695681572
1747571336942009900,12.046009765625,-0.2718350291252136,0.43615779280662537,-0.1466076523065567
1747571336957970400,12.061970458984375,-0.41111230850219727,0.6640105247497559,-0.3182607889175415
1747571336973961200,12.077961181640624,-0.523511528968811,0.8558222055435181,-0.38606682419776917
1747571336989921800,12.093921875,-0.7354817390441895,0.759305477142334,-0.32986724376678467
1747571337005912600,12.10991259765625,-1.0458012819290161,0.6688974499702454,-0.056810468435287476
1747571337021903600,12.125903564453125,-1.1478158235549927,0.7385360598564148,0.18814650177955627
1747571337037864000,12.141864013671874,-0.8961393237113953,0.5839871764183044,0.0806342139840126
1747571337053824500,12.157824462890625,-0.5626068711280823,0.33597588539123535,-0.20097467303276062
1747571337069815300,12.173815185546875,-0.3732386529445648,-0.08857546001672745,-0.5479460954666138
1747571337085806300,12.189806396484375,-0.25595253705978394,-0.19486601650714874,-0.8197811841964722
1747571337101797400,12.20579736328125,-0.2822197377681732,0.06169738993048668,-0.6151412725448608
1747571337117757700,12.2217578125,-0.4386012554168701,0.25595253705978394,-0.1417207419872284
1747571337133718300,12.23771826171875,-0.5247332453727722,0.303600013256073,0.12095131725072861
1747571337149709000,12.253708984375,-0.42577308416366577,0.06414084881544113,0.1270599663257599
1747571337165669600,12.269669677734376,-0.152105450630188,-0.14416420459747314,-0.028099801391363144
1747571337181691000,12.28569091796875,0.0659734457731247,-0.29626965522766113,-0.11850785464048386
1747571337197621000,12.30162109375,0.13927727937698364,-0.34636059403419495,-0.10567969083786011
1747571337213611800,12.31761181640625,0.021380282938480377,-0.34147366881370544,-0.03237585723400116
1747571337229602800,12.333602783203125,-0.2021963894367218,-0.19486601650714874,0.045204028487205505
1747571337245563100,12.349563232421875,-0.31031954288482666,0.015271631069481373,0.08429940044879913
1747571337261584600,12.365584716796874,-0.29138273000717163,0.08918632566928864,0.025656340643763542
1747571337277545200,12.381545166015625,-0.17531833052635193,0.07635815441608429,-0.06902777403593063
1747571337309496600,12.41349658203125,0.02871066704392433,0.02626720629632473,-0.15027284622192383
1747571337325487400,12.4294873046875,-0.00427605677396059,-0.02626720629632473,-0.1411098688840866
1747571337341478400,12.445478515625,-0.15027284622192383,-0.05314527451992035,-0.06719517707824707
1747571337357438700,12.461438720703125,-0.2974913716316223,0.0403171069920063,0.045204028487205505
1747571337373399300,12.4773994140625,-0.30970868468284607,0.23640485107898712,0.11484266817569733
1747571337389390000,12.49339013671875,-0.2272418737411499,0.27977627515792847,0.05803219974040985
1747571337405350700,12.5093505859375,-0.1264491081237793,0.18509216606616974,-0.0708603709936142
1747571337421372200,12.5253720703125,-0.0708603709936142,0.05253441259264946,-0.15760323405265808
1747571337437302000,12.541302001953126,-0.1007927656173706,0.015882495790719986,-0.11056660860776901
1747571337453293000,12.55729296875,-0.14905111491680145,0.031154127791523933,0.028099801391363144
1747571337469253400,12.57325341796875,-0.2119702398777008,0.08185594528913498,0.13377949595451355
1747571337485244400,12.589244384765625,-0.21991148591041565,0.11484266817569733,0.11972958594560623
1747571337501235200,12.605235107421874,-0.1820378452539444,0.12339477986097336,0.0507018156349659
1747571337517195800,12.62119580078125,-0.1215621829032898,0.07941248267889023,-0.013439035043120384
1747571337533156000,12.637156005859374,-0.05619960278272629,0.0555887371301651,-0.06902777403593063
1747571337549147100,12.653147216796874,-0.02932153269648552,0.015882495790719986,-0.07452555745840073
1747571337565138000,12.669137939453124,-0.051312681287527084,0.01038470957428217,-0.036041051149368286
1747571337581129000,12.68512890625,-0.09346238523721695,0.05925392732024193,-0.0012217304902151227
1747571337597120000,12.7011201171875,-0.07880161702632904,0.1313360333442688,0.039706241339445114
1747571337613176300,12.71717626953125,-0.06291911751031876,0.08185594528913498,0.04948008432984352
1747571337629167000,12.7331669921875,-0.0507018156349659,0.04948008432984352,0.05009094998240471
1747571337645127700,12.749127685546876,-0.06169738993048668,0.05375614017248154,0.10018189996480942
1747571337661149200,12.765149169921875,-0.0806342139840126,0.01160643994808197,0.16249015927314758
1747571337677170400,12.78117041015625,-0.0806342139840126,0.01160643994808197,0.16249015927314758
1747571337693161500,12.797161376953126,-0.0806342139840126,0.01160643994808197,0.16249015927314758
1747571337709121800,12.813121826171875,-0.0806342139840126,0.01160643994808197,0.16249015927314758
1747571337725112800,12.82911279296875,-0.0806342139840126,0.01160643994808197,0.16249015927314758
1747571337741103900,12.845103759765625,-0.0806342139840126,0.01160643994808197,0.16249015927314758
1747571337757064200,12.861064208984375,-0.0806342139840126,0.01160643994808197,0.16249015927314758
1747571337773024800,12.877024658203124,-0.0806342139840126,0.01160643994808197,0.16249015927314758
1747571337789015600,12.893015625,-0.0806342139840126,0.01160643994808197,0.16249015927314758
1747571337804976000,12.90897607421875,-0.16554448008537292,1.309084177017212,-0.24617868661880493
1747571337820997400,12.924997314453124,-0.1667662113904953,1.4343116283416748,-0.3072652220726013
1747571337836927500,12.940927490234374,-0.13866640627384186,1.5992451906204224,-0.3988949954509735
1747571337852918300,12.956918212890624,0.036041051149368286,1.2864822149276733,-0.42088615894317627
1747571337868878800,12.97287890625,0.34025195240974426,0.7330383062362671,-0.4050036668777466
1747571337884869600,12.98886962890625,0.578489363193512,0.3927863538265228,-0.42638394236564636
1747571337900860700,13.004860595703125,0.7110471725463867,0.35246923565864563,-0.4605923891067505
1747571337916821000,13.020821044921876,0.7874053120613098,0.616973876953125,-0.45631635189056396
1747571337932781600,13.036781494140625,0.7617489695549011,1.014647126197815,-0.46792277693748474
1747571337948772400,13.0527724609375,0.6609562039375305,1.4355332851409912,-0.504574716091156
1747571337964733000,13.06873291015625,0.44165557622909546,2.0201313495635986,-0.5913175344467163
1747571337980723700,13.0847236328125,0.2718350291252136,2.7873780727386475,-0.7202101349830627
1747571337996684300,13.100684326171875,0.27061331272125244,3.135571241378784,-0.808174729347229
1747571338012705500,13.11670556640625,0.33536502718925476,3.1337387561798096,-0.950506329536438
1747571338028696600,13.132696533203125,0.39217549562454224,3.191159963607788,-1.1337659358978271
1747571338044657000,13.148656982421874,0.39584067463874817,3.2290337085723877,-1.178359031677246
1747571338060678400,13.164678466796875,0.2687807083129883,3.3090569972991943,-1.1282681226730347
1747571338076608300,13.180608154296875,0.17043140530586243,3.271794319152832,-0.9474520087242126
1747571338092599300,13.196599365234375,0.05375614017248154,3.103806257247925,-0.7531968355178833
1747571338108560000,13.212559814453124,-0.1014036312699318,2.6975808143615723,-0.5729916095733643
1747571338124550700,13.228550537109374,-0.22357667982578278,2.107485055923462,-0.5094616413116455
1747571338148567600,13.252567626953125,-0.18387043476104736,1.0238101482391357,-0.39217549562454224
1747571338164528000,13.268528076171876,-0.14233160018920898,1.0018190145492554,-0.2064724564552307
1747571338180549400,13.28454931640625,-0.23457226157188416,1.624901533126831,-0.13866640627384186
1747571338196479500,13.3004794921875,-0.5662720799446106,2.3017401695251465,-0.192422553896904
1747571338220466000,13.3244658203125,-1.0580185651779175,2.479501962661743,-0.15027284622192383
1747571338244391200,13.34839111328125,-1.518610954284668,2.3683245182037354,-0.13316862285137177
1747571338260412700,13.36441259765625,-1.892460584640503,2.9126055240631104,-0.02015855349600315
1747571338276342500,13.380342529296875,-2.147191286087036,3.522859811782837,0.13927727937698364
1747571338292303000,13.39630322265625,-2.1734585762023926,3.657250165939331,0.49296826124191284
1747571338308294000,13.4122939453125,-1.8930714130401611,2.73606538772583,0.7623597979545593
1747571338324254500,13.42825439453125,-1.671938180923462,1.6939293146133423,0.9334021210670471
1747571338340245200,13.444245361328125,-1.588249683380127,0.7666358947753906,1.0800096988677979
1747571338356205800,13.460205810546874,-1.6829338073730469,0.4948008358478546,0.9724974632263184
1747571338372166100,13.476166259765625,-1.9175059795379639,0.2889392673969269,0.8387179970741272
1747571338388157200,13.4921572265625,-2.0647244453430176,-0.14049901068210602,0.6188064813613892
1747571338404117500,13.508117431640626,-2.0537290573120117,-0.7452555894851685,0.34086281061172485
1747571338420108500,13.524108642578126,-1.8405369520187378,-1.3054190874099731,0.24129177629947662
1747571338436038400,13.540038330078126,-1.5277739763259888,-2.0360138416290283,0.18020524084568024
1747571338452029200,13.556029296875,-1.1887437105178833,-2.6902506351470947,-0.04703662544488907
1747571338467989800,13.57198974609375,-1.0109820365905762,-2.8130345344543457,-0.50335294008255
1747571338483950000,13.5879501953125,-1.0836749076843262,-2.1514673233032227,-1.1746938228607178
1747571338499941000,13.603941162109376,-1.2614367008209229,-1.3603968620300293,-1.6982053518295288
1747571338515901400,13.6199013671875,-1.274264931678772,-0.8130616545677185,-2.0274617671966553
1747571338531862000,13.635862060546875,-1.208902359008789,-0.6860016584396362,-2.3292291164398193
1747571338547822300,13.651822265625,-1.0574077367782593,-0.6139195561408997,-2.3408355712890625
1747571338563813400,13.6678134765625,-0.8283332586288452,-0.5314527750015259,-2.152078151702881
1747571338579804200,13.68380419921875,-0.4703662395477295,-0.49296826124191284,-1.9871445894241333
1747571338595764700,13.6997646484375,-0.004886921960860491,-0.49846604466438293,-2.2296581268310547
1747571338611725000,13.71572509765625,0.47219884395599365,-0.04398229718208313,-2.526538610458374
1747571338627685400,13.731685302734375,0.7898487448692322,2.3909265995025635,0.1771509200334549
1747571338643676400,13.747676513671875,0.23273965716362,1.4953981637954712,-2.3854286670684814
1747571338659667500,13.76366748046875,0.5595525503158569,1.482569932937622,-3.154508113861084
1747571338675597300,13.779597412109375,0.8136724829673767,0.5112941861152649,-2.5002715587615967
1747571338691557600,13.7955576171875,1.0433578491210938,-1.197295904159546,-2.098932981491089
1747571338707548700,13.811548583984376,1.5192219018936157,-1.361007809638977,-2.342057466506958
1747571338723509000,13.827509033203125,1.7409659624099731,-0.6896668672561646,-2.596788167953491
1747571338739500000,13.8435,1.3903292417526245,0.11423180252313614,-2.529592990875244
1747571338755430000,13.859429931640625,0.9034696817398071,0.5613851547241211,-2.037846565246582
1747571338771421000,13.8754208984375,0.5974262356758118,0.37690386176109314,-1.7531832456588745
1747571338787381200,13.89138134765625,0.5112941861152649,-0.2877175211906433,-1.6340645551681519
1747571338803341800,13.907341796875,0.7067710757255554,-1.122159481048584,-1.7092009782791138
1747571338819332600,13.92333251953125,1.0018190145492554,-1.7849482297897339,-1.8393152952194214
1747571338835293200,13.939293212890625,1.2950342893600464,-2.3023509979248047,-1.6927075386047363
1747571338851253500,13.95525341796875,1.147204875946045,-1.6884315013885498,-1.2125675678253174
1747571338867213800,13.9712138671875,0.7745771408081055,-0.8851437568664551,-0.8692612648010254
1747571338883204900,13.987204833984375,0.323147714138031,-0.9285151958465576,-0.7770205736160278
1747571338899196000,14.00319580078125,0.23884831368923187,-1.8735237121582031,-0.7220427393913269
1747571338915125800,14.019125732421875,0.11423180252313614,-2.3988678455352783,-0.44593164324760437
1747571338931116500,14.035116455078125,-0.2767219543457031,-1.4581353664398193,-0.32681289315223694
1747571338947077000,14.0510771484375,-0.6334672570228577,-0.11911872029304504,0.054367005825042725
1747571338963037400,14.067037353515625,-0.2620611786842346,-0.05314527451992035,0.04153883829712868
1747571338979059000,14.083058837890626,0.6444628238677979,-1.292590856552124,-0.4758640229701996
1747571338994988800,14.09898876953125,1.2101240158081055,-2.7403414249420166,-1.0231993198394775
1747571339010979800,14.114979736328126,0.7440338730812073,-2.908329486846924,-1.3475687503814697
1747571339026940200,14.130940185546875,-0.8087855577468872,-1.9694294929504395,-1.9743164777755737
1747571339042900700,14.146900634765625,-2.481334686279297,-1.0506882667541504,-1.5699236392974854
1747571339058922000,14.162921875,-3.065321683883667,-2.29440975189209,-0.5009095072746277
1747571339074852000,14.17885205078125,-2.4697282314300537,-3.346930742263794,0.2687807083129883
1747571339090843000,14.1948427734375,-2.328007459640503,-2.7372870445251465,-0.3732386529445648
1747571339106803500,14.210803466796875,-3.2986724376678467,-2.5558602809906006,-0.6579018831253052
1747571339122794200,14.226794189453125,-3.938858985900879,-1.5632041692733765,-0.9059131741523743
1747571339138785300,14.242785400390625,-3.618154764175415,0.6218608021736145,-0.7098253965377808
1747571339154745600,14.25874560546875,-2.8912250995635986,1.6627751588821411,0.4190535545349121
1747571339170706200,14.2747060546875,-2.020742177963257,3.048217535018921,0.8643743395805359
1747571339186697000,14.290697021484375,-2.2571470737457275,3.1251866817474365,0.8100073337554932
1747571339202657500,14.306657470703126,-3.6645805835723877,1.2620476484298706,1.018923282623291
1747571339218648300,14.3226484375,-4.289495944976807,-1.5467108488082886,-0.24434609711170197
1747571339234609000,14.33860888671875,-4.585765361785889,-2.30051851272583,-1.4862351417541504
1747571339250569200,14.3545693359375,-4.277889251708984,-1.4911220073699951,-2.5302038192749023
1747571339266560300,14.370560302734376,-4.335310459136963,-1.0384708642959595,-3.146566867828369
1747571339282520600,14.3865205078125,-4.252233028411865,-0.7709119319915771,-3.570507287979126
1747571339298542000,14.4025419921875,-3.4245104789733887,-1.2712105512619019,-2.822197437286377
1747571339314472000,14.418471923828125,-2.487443208694458,-1.1508700847625732,-1.015868902206421
1747571339330463000,14.434462890625,-1.7409659624099731,-0.7336491346359253,0.8802568316459656
1747571339346423300,14.45042333984375,-1.1985175609588623,0.152105450630188,1.5167783498764038
1747571339362384000,14.4663837890625,-0.9462302923202515,1.224173903465271,1.2986994981765747
1747571339378374700,14.482374755859375,-0.8307767510414124,2.032959461212158,0.607200026512146
1747571339394335200,14.498335205078124,-0.636521577835083,0.5363397002220154,-0.2070833146572113
1747571339410295600,14.514295654296875,-0.37568211555480957,-1.521665334701538,-0.6621779203414917
1747571339426286600,14.53028662109375,-0.07269296050071716,-2.0580050945281982,-0.9615018963813782
1747571339442247000,14.546246826171876,0.05864306539297104,-1.0170906782150269,-0.8356636762619019
1747571339458238000,14.562238037109376,0.031154127791523933,0.40683624148368835,-0.36590829491615295
1747571339474198300,14.5781982421875,-0.07941248267889023,1.8264870643615723,0.11789698898792267
1747571339490158600,14.59415869140625,-0.15515977144241333,2.4416284561157227,0.19364428520202637
1747571339506149600,14.610149658203126,-0.14538592100143433,2.2204952239990234,0.12339477986097336
1747571339522110200,14.626110107421875,-0.16310101747512817,1.4703526496887207,0.022602014243602753
1747571339538101000,14.64210107421875,-0.19547687470912933,0.7104362845420837,-0.04948008432984352
1747571339554061600,14.6580615234375,-0.23945917189121246,0.5180137157440186,-0.06963863968849182
1747571339570022000,14.67402197265625,-0.2779437005519867,0.6316346526145935,-0.012217304669320583
1747571339586013000,14.690012939453124,-0.30115658044815063,0.8118399381637573,0.051312681287527084
1747571339602003700,14.706003662109374,-0.29077184200286865,0.8698720932006836,0.05253441259264946
1747571339617994800,14.721994873046874,-0.27000242471694946,0.8570439219474792,0.01771509274840355
1747571339633924600,14.737924560546874,-0.252287358045578,0.8142833709716797,-0.03298672288656235
1747571339649915600,14.75391552734375,-0.24190263450145721,0.7489207983016968,-0.04092797264456749
1747571339665876000,14.7698759765625,-0.23518311977386475,0.6762278079986572,-0.0006108652451075613
1747571339681867000,14.785866943359375,-0.21624629199504852,0.6682865619659424,0.03848451003432274
1747571339697857800,14.80185791015625,-0.21563543379306793,0.6664539575576782,0.021380282938480377
1747571339713818400,14.817818359375,-0.2370157092809677,0.5907067060470581,-0.028099801391363144
1747571339729778700,14.83377880859375,-0.26511552929878235,0.4355469346046448,-0.07269296050071716
1747571339745769700,14.849769775390625,-0.2871066629886627,0.2932153046131134,-0.07147123664617538
1747571339761730000,14.86572998046875,-0.29138273000717163,0.17104226350784302,-0.02321287989616394
1747571339777721000,14.88172119140625,-0.24678955972194672,0.15515977144241333,0.02871066704392433
1747571339793681400,14.897681396484375,-0.20036379992961884,0.252287358045578,0.025045474991202354
1747571339809672400,14.91367236328125,-0.16798794269561768,0.3323107063770294,-0.021380282938480377
1747571339825632800,14.9296328125,-0.1563815027475357,0.40744712948799133,-0.06291911751031876
1747571339841593000,14.945593017578124,-0.13439035415649414,0.494189977645874,-0.03787364438176155
1747571339857614600,14.961614501953125,-0.13744467496871948,0.4954117238521576,0.021991148591041565
1747571339873544700,14.977544677734375,-0.15454891324043274,0.4202753007411957,0.060475658625364304
1747571339889535500,14.993535400390625,-0.16859880089759827,0.39645153284072876,0.031154127791523933
1747571339905496000,15.00949609375,-0.18325957655906677,0.3842342495918274,0.004886921960860491
1747571339921486800,15.02548681640625,-0.17287486791610718,0.36224308609962463,0.03787364438176155
1747571339937478000,15.041477783203124,-0.18631389737129211,0.3433062732219696,0.1014036312699318
1747571339953438200,15.057438232421875,-0.18875735998153687,0.3591887652873993,0.1508837193250656
1747571339969398800,15.073398681640626,-0.19058994948863983,0.42088615894317627,0.17959438264369965
1747571339985389600,15.0893896484375,-0.19608774781227112,0.5106833577156067,0.16798794269561768
1747571340001350100,15.10535009765625,-0.19486601650714874,0.5577199459075928,0.13988813757896423
1747571340017341000,15.1213408203125,-0.23029619455337524,0.5632177591323853,0.09896016865968704
1747571340033301500,15.137301513671876,-0.2669481039047241,0.5491678714752197,0.07024950534105301
1747571340049292300,15.153292236328125,-0.2974913716316223,0.5021312236785889,0.07391469180583954
1747571340065252900,15.1692529296875,-0.375071257352829,0.503963828086853,0.10201449692249298
1747571340081243600,15.18524365234375,-0.44593164324760437,0.5070181488990784,0.12461651116609573
1747571340097234700,15.201234619140624,-0.475253164768219,0.5241223573684692,0.1111774742603302
1747571340113195000,15.217195068359375,-0.44104471802711487,0.5461135506629944,0.06780604273080826
1747571340129155600,15.233155517578124,-0.3830125033855438,0.5833762884140015,0.01160643994808197
1747571340145146400,15.249146484375,-0.3885102868080139,0.607200026512146,-0.036651913076639175
1747571340161137400,15.265137451171874,-0.37201693654060364,0.6047565937042236,-0.06291911751031876
1747571340177128200,15.281128173828124,-0.34513887763023376,0.5296201705932617,-0.07696902006864548
1747571340193088800,15.2970888671875,-0.323147714138031,0.45204028487205505,-0.07208210229873657
1747571340209049000,15.313049072265626,-0.2877175211906433,0.34758231043815613,-0.07024950534105301
1747571340225009700,15.329009765625,-0.22113321721553802,0.31642818450927734,-0.08185594528913498
1747571340241000400,15.34500048828125,-0.13805554807186127,0.34025195240974426,-0.06902777403593063
1747571340256991500,15.360991455078125,-0.033597588539123535,0.3842342495918274,-0.028099801391363144
1747571340272951800,15.376951904296876,0.0507018156349659,0.3903428912162781,0.009773843921720982
1747571340288912400,15.392912353515625,0.12278391420841217,0.38606682419776917,0.015882495790719986
1747571340304903200,15.408903076171875,0.16920967400074005,0.4105014503002167,0.0012217304902151227
1747571340320863700,15.42486376953125,0.19914206862449646,0.42699480056762695,-0.030543262138962746
1747571340336854500,15.4408544921875,0.22418753802776337,0.40194934606552124,-0.06291911751031876
1747571340352815000,15.456815185546875,0.24007004499435425,0.36529740691185,-0.07452555745840073
1747571340368775400,15.472775390625,0.23945917189121246,0.3341432809829712,-0.06841690838336945
1747571340384766500,15.488766357421875,0.24373523890972137,0.26450464129447937,-0.06230825558304787
1747571340400726800,15.504726806640624,0.24923302233219147,0.18020524084568024,-0.07880161702632904
1747571340416717800,15.5207177734375,0.2565633952617645,0.13011430203914642,-0.11301007121801376
1747571340432678100,15.53667822265625,0.25961771607398987,0.1362229436635971,-0.15760323405265808
1747571340448638700,15.552638671875,0.25045475363731384,0.14966198801994324,-0.19914206862449646
1747571340464599000,15.56859912109375,0.24129177629947662,0.1618792861700058,-0.252287358045578
1747571340480590000,15.584590087890625,0.2474004179239273,0.2076941877603531,-0.28527405858039856
1747571340496580900,15.600580810546875,0.24862214922904968,0.24923302233219147,-0.3066543638706207
1747571340512541400,15.61654150390625,0.24617868661880493,0.24068090319633484,-0.3176499307155609
1747571340528501800,15.632501708984375,0.2382374405860901,0.1820378452539444,-0.3072652220726013
1747571340544462000,15.648462158203126,0.21930062770843506,0.08674286305904388,-0.2981022298336029
1747571340560453000,15.664453125,0.20036379992961884,-0.06230825558304787,-0.2981022298336029
1747571340576444200,15.680444091796875,0.18936823308467865,-0.18325957655906677,-0.29626965522766113
1747571340592404500,15.696404541015625,0.18631389737129211,-0.2321287989616394,-0.2919935882091522
1747571340608395500,15.7123955078125,0.18509216606616974,-0.23579397797584534,-0.2773328125476837
1747571340624355800,15.72835595703125,0.18814650177955627,-0.2217440903186798,-0.2382374405860901
1747571340640347000,15.744346923828125,0.19914206862449646,-0.19120082259178162,-0.18997909128665924
1747571340656337700,15.760337646484375,0.22357667982578278,-0.12950342893600464,-0.13011430203914642
1747571340672298200,15.77629833984375,0.23884831368923187,-0.03481931984424591,-0.11545353382825851
1747571340688258600,15.792258544921875,0.24434609711170197,0.025656340643763542,-0.1362229436635971
1747571340704249600,15.80824951171875,0.251676470041275,0.0403171069920063,-0.17043140530586243
1747571340720210000,15.8242099609375,0.2431243658065796,-0.012217304669320583,-0.1618792861700058
1747571340736231400,15.8402314453125,0.21074850857257843,-0.0659734457731247,-0.11789698898792267
1747571340752161300,15.856161376953125,0.13988813757896423,-0.06841690838336945,-0.04886921867728233
1747571340768152300,15.87215234375,0.07024950534105301,-0.045204028487205505,-0.00855211354792118
1747571340784112600,15.888112548828126,0.04092797264456749,-0.05009094998240471,-0.016493361443281174
1747571340800103700,15.904103759765626,0.039706241339445114,-0.08552113175392151,-0.03787364438176155
1747571340816094500,15.920094482421876,0.05192354694008827,-0.1411098688840866,-0.07024950534105301
1747571340832055000,15.936054931640625,0.08429940044879913,-0.17348572611808777,-0.11911872029304504
1747571340848015400,15.952015380859375,0.12828169763088226,-0.19547687470912933,-0.16554448008537292
1747571340864006400,15.96800634765625,0.16798794269561768,-0.25106561183929443,-0.2119702398777008
1747571340879966700,15.983966796875,0.1869247704744339,-0.32009339332580566,-0.2272418737411499
1747571340895988200,15.99998828125,0.19792033731937408,-0.37201693654060364,-0.22296582162380219
1747571340911918000,16.01591796875,0.19914206862449646,-0.37751471996307373,-0.22113321721553802
1747571340927909000,16.0319091796875,0.2021963894367218,-0.31520646810531616,-0.21868975460529327
1747571340943869400,16.047869384765626,0.1966986060142517,-0.2382374405860901,-0.22296582162380219
1747571340959860500,16.063860595703126,0.1765400618314743,-0.18814650177955627,-0.21930062770843506
1747571340975851300,16.079851318359374,0.13927727937698364,-0.19608774781227112,-0.19914206862449646
1747571340991811800,16.095811767578127,0.08796459436416626,-0.2675589919090271,-0.16310101747512817
1747571341007803000,16.111802978515627,0.02932153269648552,-0.34513887763023376,-0.10262536257505417
1747571341023763200,16.12776318359375,-0.00427605677396059,-0.36102136969566345,-0.04642575979232788
1747571341039754200,16.143754150390624,-0.005497787147760391,-0.3225368559360504,-0.012828170321881771
1747571341055745000,16.1597451171875,-0.006719517521560192,-0.23457226157188416,0.00855211354792118
1747571341071705600,16.17570556640625,0.00855211354792118,-0.16982053220272064,0.025656340643763542
1747571341087696400,16.1916962890625,0.025045474991202354,-0.1368338167667389,0.04948008432984352
1747571341103657000,16.207656982421874,0.05497787147760391,-0.08735372871160507,0.08307767659425735
1747571341119647700,16.223647705078125,0.08552113175392151,-0.021991148591041565,0.09896016865968704
1747571341135638800,16.239638671875,0.10995574295520782,0.04337143152952194,0.0959058403968811
1747571341151599000,16.25559912109375,0.13316862285137177,0.09468411654233932,0.0708603709936142
1747571341167559700,16.2715595703125,0.13377949595451355,0.10934487730264664,0.028099801391363144
1747571341183550500,16.287550537109375,0.11423180252313614,0.09957103431224823,0.01038470957428217
1747571341199511000,16.303510986328124,0.08857546001672745,0.06291911751031876,0.018325956538319588
1747571341215532300,16.3195322265625,0.06536258012056351,-0.016493361443281174,0.04092797264456749
1747571341231462400,16.33546240234375,0.06230825558304787,-0.10262536257505417,0.06414084881544113
1747571341247453200,16.351453125,0.0659734457731247,-0.11301007121801376,0.07269296050071716
1747571341263444200,16.3674443359375,0.0861319974064827,-0.06841690838336945,0.05742133408784866
1747571341279404500,16.383404541015626,0.10995574295520782,-0.0012217304902151227,0.024434609338641167
1747571341295395600,16.3993955078125,0.1215621829032898,0.0555887371301651,0.0006108652451075613
1747571341311356000,16.41535595703125,0.12095131725072861,0.08307767659425735,-0.01160643994808197
1747571341327347000,16.431346923828126,0.10873401165008545,0.09346238523721695,-0.006719517521560192
1747571341343307300,16.447307373046876,0.0959058403968811,0.11239920556545258,-0.005497787147760391
1747571341359298300,16.46329833984375,0.08307767659425735,0.14477506279945374,-0.00855211354792118
1747571341375289300,16.479289306640624,0.06719517707824707,0.1765400618314743,-0.00855211354792118
1747571341391249700,16.495249755859376,0.05314527451992035,0.192422553896904,0.003054326167330146
1747571341407240700,16.51124072265625,0.042760565876960754,0.22418753802776337,0.01160643994808197
1747571341423201000,16.527200927734373,0.03481931984424591,0.2681698501110077,0.01160643994808197
1747571341439192000,16.543192138671873,0.02871066704392433,0.29077184200286865,0.014049900695681572
1747571341455213300,16.55921337890625,0.02076941914856434,0.29016098380088806,0.009773843921720982
1747571341471174000,16.575173828125,0.015271631069481373,0.24678955972194672,0.005497787147760391
1747571341487134200,16.59113427734375,0.00733038317412138,0.22418753802776337,0.00733038317412138
1747571341503125200,16.607125244140626,-0.00855211354792118,0.21563543379306793,0.00855211354792118
1747571341519085600,16.62308544921875,-0.03176499158143997,0.2217440903186798,0.016493361443281174
1747571341535107000,16.639107177734374,-0.04337143152952194,0.24190263450145721,0.018936822190880775
1747571341551067400,16.6550673828125,-0.05253441259264946,0.2565633952617645,0.00733038317412138
1747571341567028000,16.671028076171876,-0.06414084881544113,0.23640485107898712,-0.00733038317412138
1747571341583018800,16.687018798828124,-0.07941248267889023,0.1973094791173935,-0.0024434609804302454
1747571341598979300,16.702979248046876,-0.09285151958465576,0.18325957655906677,0.009162978269159794
1747571341615000800,16.719000732421875,-0.09468411654233932,0.2376265823841095,0.004886921960860491
1747571341630961200,16.734961181640625,-0.08979719132184982,0.3170390725135803,0.00733038317412138
1747571341646921500,16.75092138671875,-0.07330382615327835,0.3695734739303589,-0.01038470957428217
1747571341662912500,16.76691259765625,-0.06291911751031876,0.3280346393585205,-0.03787364438176155
1747571341678873000,16.782873046875,-0.06475171446800232,0.16737708449363708,-0.03237585723400116
1747571341694894300,16.798894287109373,-0.06108652427792549,0.005497787147760391,-0.02076941914856434
1747571341710824400,16.814824462890623,-0.06352998316287994,-0.10812314599752426,-0.01160643994808197
1747571341726815200,16.830815185546875,-0.0659734457731247,-0.09834930300712585,0.0024434609804302454
1747571341742775800,16.84677587890625,-0.06902777403593063,-0.019547687843441963,0.005497787147760391
1747571341758766600,16.8627666015625,-0.06719517707824707,0.11545353382825851,-0.006108652334660292
1747571341774757600,16.878757568359376,-0.06780604273080826,0.23457226157188416,-0.03176499158143997
1747571341790718000,16.894718017578125,-0.06230825558304787,0.3078760802745819,-0.06902777403593063
1747571341806709000,16.910708984375,-0.036651913076639175,0.36713001132011414,-0.1111774742603302
1747571341822669300,16.92666943359375,-0.01710422709584236,0.44715335965156555,-0.12217304855585098
1747571341838660400,16.942660400390626,-0.00733038317412138,0.5626068711280823,-0.1313360333442688
1747571341854651100,16.958651123046874,-0.013439035043120384,0.7128797173500061,-0.13561208546161652
1747571341870611700,16.97461181640625,-0.05619960278272629,0.750142514705658,-0.10812314599752426
1747571341886602500,16.9906025390625,-0.10995574295520782,0.6597344875335693,-0.05619960278272629
1747571341902563000,17.00656298828125,-0.1514945775270462,0.46853363513946533,-0.019547687843441963
1747571341918553900,17.022553955078124,-0.152105450630188,0.2736676335334778,-0.028099801391363144
1747571341934545000,17.038544921875,-0.1270599663257599,0.18020524084568024,-0.04581489413976669
1747571341950505200,17.054505126953124,-0.07880161702632904,0.15393804013729095,-0.0507018156349659
1747571341966496300,17.070496337890624,-0.04581489413976669,0.17531833052635193,-0.054367005825042725
1747571341982456600,17.08645654296875,-0.021991148591041565,0.23029619455337524,-0.05192354694008827
1747571341998447600,17.102447509765625,-0.019547687843441963,0.30543261766433716,-0.054367005825042725
1747571342014438700,17.118438720703125,-0.03787364438176155,0.3188716471195221,-0.06902777403593063
1747571342030399000,17.13439892578125,-0.05192354694008827,0.2932153046131134,-0.06658431142568588
1747571342046390000,17.15039013671875,-0.05497787147760391,0.2376265823841095,-0.05253441259264946
1747571342062350300,17.166350341796875,-0.0403171069920063,0.192422553896904,-0.025045474991202354
1747571342078341400,17.18234130859375,-0.01771509274840355,0.14416420459747314,0.013439035043120384
1747571342094332200,17.198332275390626,0.009773843921720982,0.06902777403593063,0.019547687843441963
1747571342110292700,17.214292724609376,0.005497787147760391,-0.05253441259264946,-0.01466076634824276
1747571342126253000,17.230253173828125,-0.02015855349600315,-0.1417207419872284,-0.02076941914856434
1747571342142244000,17.246244140625,-0.025045474991202354,-0.12278391420841217,-0.012828170321881771
1747571342158235000,17.26223486328125,-0.004886921960860491,-0.025045474991202354,-0.02626720629632473
1747571342174226000,17.278225830078124,0.019547687843441963,0.06291911751031876,-0.05314527451992035
1747571342190186200,17.294186279296873,0.02626720629632473,0.0403171069920063,-0.04886921867728233
1747571342206177300,17.31017724609375,0.007941247895359993,-0.05497787147760391,-0.02015855349600315
1747571342222137600,17.3261376953125,-0.02076941914856434,-0.07391469180583954,-0.00427605677396059
1747571342238128600,17.342128662109374,-0.0354301854968071,-0.04214970022439957,0.003054326167330146
1747571342254119700,17.35811962890625,-0.036651913076639175,-0.006719517521560192,0.05253441259264946
1747571342270080000,17.374080078125,-0.009162978269159794,0.02626720629632473,0.10262536257505417
1747571342286071000,17.390071044921875,0.028099801391363144,0.0403171069920063,0.09773843735456467
1747571342302031400,17.40603125,0.04581489413976669,-0.00427605677396059,0.05009094998240471
1747571342318022400,17.4220224609375,0.0507018156349659,-0.05619960278272629,-0.015882495790719986
1747571342334013200,17.43801318359375,0.04764748737215996,-0.05253441259264946,-0.06658431142568588
1747571342349973800,17.453973876953125,0.04398229718208313,-0.005497787147760391,-0.11362093687057495
1747571342365934000,17.46993408203125,0.028099801391363144,0.05497787147760391,-0.13377949595451355
1747571342381925000,17.485925048828125,0.02015855349600315,0.09834930300712585,-0.12767083942890167
1747571342397916000,17.501916015625,0.025045474991202354,0.16737708449363708,-0.11789698898792267
1747571342413907000,17.517906982421874,0.015882495790719986,0.2474004179239273,-0.10262536257505417
1747571342429867300,17.5338671875,-0.00733038317412138,0.3084869384765625,-0.06963863968849182
1747571342445827800,17.549827880859375,-0.039095375686883926,0.34697145223617554,-0.0354301854968071
1747571342461818600,17.565818603515623,-0.07391469180583954,0.3579670190811157,-0.015882495790719986
1747571342477779200,17.581779296875,-0.08735372871160507,0.3445279896259308,-0.00855211354792118
1747571342493800700,17.59780078125,-0.07941248267889023,0.28038713335990906,-0.001832595793530345
1747571342509730600,17.61373046875,-0.06291911751031876,0.20586158335208893,0.001832595793530345
1747571342525721300,17.629721435546877,-0.04398229718208313,0.1667662113904953,0.01466076634824276
1747571342541682000,17.645681884765626,-0.014049900695681572,0.1765400618314743,0.0403171069920063
1747571342557672700,17.661672607421874,0.021991148591041565,0.23518311977386475,0.03420845419168472
1747571342573663700,17.677663818359374,0.04764748737215996,0.24984388053417206,-0.0006108652451075613
1747571342589624000,17.6936240234375,0.056810468435287476,0.21135938167572021,-0.025656340643763542
1747571342605615000,17.709614990234375,0.05619960278272629,0.14782938361167908,-0.05253441259264946
1747571342621606100,17.725606201171875,0.05314527451992035,0.10690141469240189,-0.05864306539297104
1747571342637566500,17.74156640625,0.04214970022439957,0.09224065393209457,-0.05497787147760391
1747571342653588000,17.757587890625,0.02015855349600315,0.051312681287527084,-0.02871066704392433
1747571342669517800,17.773517822265624,-0.005497787147760391,0.006719517521560192,0.018936822190880775
1747571342685508900,17.7895087890625,-0.006719517521560192,-0.00855211354792118,0.056810468435287476
1747571342701499600,17.805499755859376,0.009773843921720982,-0.003054326167330146,0.08246681094169617
1747571342717460200,17.821460205078125,0.03298672288656235,-0.006719517521560192,0.07452555745840073
1747571342733481700,17.837481689453124,0.05009094998240471,-0.02687807008624077,0.045204028487205505
1747571342749411600,17.85341162109375,0.05803219974040985,-0.05742133408784866,0.016493361443281174
1747571342765402400,17.86940234375,0.05619960278272629,-0.0757472887635231,-0.0012217304902151227
1747571342781393400,17.885393310546874,0.048258353024721146,-0.07819075137376785,-0.003054326167330146
1747571342797353700,17.901353759765627,0.04459316283464432,-0.054367005825042725,0.0012217304902151227
1747571342813375200,17.917375244140626,0.04642575979232788,-0.007941247895359993,-0.01466076634824276
1747571342829335800,17.933335693359375,0.04459316283464432,0.021991148591041565,-0.03237585723400116
1747571342845296000,17.949296142578124,0.027488935738801956,0.0403171069920063,-0.025045474991202354
1747571342861287200,17.965287109375,0.01160643994808197,0.025656340643763542,-0.009773843921720982
1747571342877247500,17.98124755859375,0.005497787147760391,0.01160643994808197,-0.001832595793530345
1747571342893238500,17.997238525390625,0.00855211354792118,0.03176499158143997,-0.018325956538319588
1747571342909198800,18.01319873046875,0.01771509274840355,0.0806342139840126,-0.04214970022439957
1747571342925190000,18.02918994140625,0.02015855349600315,0.14844025671482086,-0.06291911751031876
1747571342941150200,18.045150146484374,0.012828170321881771,0.21868975460529327,-0.07635815441608429
1747571342957141200,18.061141357421874,-0.005497787147760391,0.2565633952617645,-0.056810468435287476
1747571342973132000,18.077132080078126,-0.029932396486401558,0.22479841113090515,-0.022602014243602753
1747571342989092600,18.093092529296875,-0.04459316283464432,0.1563815027475357,0.003054326167330146
1747571343005083400,18.10908349609375,-0.06230825558304787,0.07757988572120667,0.04214970022439957
1747571343021044000,18.1250439453125,-0.07880161702632904,0.029932396486401558,0.08979719132184982
1747571343037034800,18.14103466796875,-0.07147123664617538,0.04092797264456749,0.1264491081237793
1747571343053025800,18.15702587890625,-0.039095375686883926,0.12950342893600464,0.1368338167667389
1747571343068986000,18.172986083984377,0.003054326167330146,0.19608774781227112,0.10567969083786011
1747571343084977200,18.18897705078125,0.028099801391363144,0.16493362188339233,0.0708603709936142
1747571343100937500,18.2049375,0.03726277872920036,0.03237585723400116,0.039095375686883926
1747571343116928500,18.220928466796874,0.039706241339445114,-0.11972958594560623,0.016493361443281174
1747571343132919600,18.23691943359375,0.03298672288656235,-0.19975294172763824,0.012217304669320583
1747571343148880000,18.2528798828125,0.027488935738801956,-0.22540926933288574,0.012828170321881771
1747571343164840200,18.268840087890624,0.018936822190880775,-0.21319197118282318,0.015271631069481373
1747571343180800800,18.28480078125,0.006719517521560192,-0.20586158335208893,0.021380282938480377
1747571343196791600,18.30079150390625,-0.00733038317412138,-0.23457226157188416,0.031154127791523933
1747571343212782600,18.316782470703124,-0.02015855349600315,-0.2968805134296417,0.02687807008624077
1747571343228743000,18.332742919921873,-0.0354301854968071,-0.3488040566444397,0.027488935738801956
1747571343244703500,18.348703369140626,-0.05253441259264946,-0.3536909818649292,0.036651913076639175
1747571343260694300,18.3646943359375,-0.051312681287527084,-0.3017674386501312,0.04581489413976669
1747571343276654800,18.38065478515625,-0.04642575979232788,-0.252287358045578,0.03481931984424591
1747571343292676400,18.39667626953125,-0.04459316283464432,-0.22418753802776337,0.014049900695681572
1747571343308636700,18.41263671875,-0.04886921867728233,-0.2217440903186798,-0.005497787147760391
1747571343324597000,18.428596923828124,-0.05742133408784866,-0.22296582162380219,-0.015882495790719986
1747571343340588000,18.444588134765624,-0.0659734457731247,-0.21807889640331268,-0.025045474991202354
1747571343356548400,18.46054833984375,-0.07819075137376785,-0.19914206862449646,-0.02321287989616394
1747571343372539400,18.476539306640625,-0.08857546001672745,-0.16249015927314758,-0.00855211354792118
1747571343388499700,18.492499755859374,-0.09407325088977814,-0.10751228034496307,0.02321287989616394
1747571343404460300,18.508460205078126,-0.09224065393209457,-0.08918632566928864,0.048258353024721146
1747571343420451300,18.524451416015626,-0.08246681094169617,-0.1014036312699318,0.06719517707824707
1747571343436411600,18.54041162109375,-0.06658431142568588,-0.10323622822761536,0.06658431142568588
1747571343452433200,18.55643310546875,-0.04886921867728233,-0.06658431142568588,0.030543262138962746
1747571343468363000,18.572363037109376,-0.05497787147760391,-0.04153883829712868,-0.00855211354792118
1747571343484354000,18.58835400390625,-0.06902777403593063,-0.03237585723400116,-0.027488935738801956
1747571343500344800,18.6043447265625,-0.09773843735456467,-0.022602014243602753,-0.03420845419168472
1747571343516305400,18.620305419921873,-0.1264491081237793,-0.02076941914856434,-0.021380282938480377
1747571343532296200,18.636296142578125,-0.12522737681865692,-0.010995574295520782,0.0024434609804302454
1747571343548256800,18.6522568359375,-0.10018189996480942,0.012217304669320583,0.018936822190880775
1747571343564247600,18.66824755859375,-0.06902777403593063,0.05803219974040985,0
1747571343580208000,18.6842080078125,-0.05619960278272629,0.0757472887635231,-0.03848451003432274
1747571343596199000,18.700198974609375,-0.060475658625364304,0.06352998316287994,-0.06475171446800232
1747571343612190000,18.71618994140625,-0.07941248267889023,0.03237585723400116,-0.07269296050071716
1747571343628150300,18.732150390625,-0.09224065393209457,0.027488935738801956,-0.07024950534105301
1747571343644141300,18.748141357421876,-0.09712757170200348,0.04703662544488907,-0.06780604273080826
1747571343660101600,18.7641015625,-0.10018189996480942,0.04337143152952194,-0.04764748737215996
1747571343676092700,18.7800927734375,-0.09957103431224823,0.030543262138962746,-0.01771509274840355
1747571343692083500,18.79608349609375,-0.09529497474431992,0.027488935738801956,0.00733038317412138
1747571343708044000,18.8120439453125,-0.09834930300712585,0.03420845419168472,0.012828170321881771
1747571343724034800,18.828034912109374,-0.10934487730264664,0.03420845419168472,0.016493361443281174
1747571343739995400,18.843995361328126,-0.11972958594560623,0.048258353024721146,0.022602014243602753
1747571343755986400,18.859986328125,-0.12889257073402405,0.06719517707824707,0.02626720629632473
1747571343771977200,18.875977294921874,-0.12339477986097336,0.07941248267889023,0.024434609338641167
1747571343787937800,18.891937744140623,-0.11850785464048386,0.06963863968849182,0.00855211354792118
1747571343803898000,18.907898193359376,-0.12034045159816742,0.012828170321881771,-0.0012217304902151227
1747571343819889200,18.92388916015625,-0.12400564551353455,-0.04581489413976669,-0.001832595793530345
1747571343835880000,18.9398798828125,-0.12828169763088226,-0.07635815441608429,-0.00427605677396059
1747571343851871000,18.95587109375,-0.13377949595451355,-0.07452555745840073,-0.009162978269159794
1747571343867831300,18.971831298828125,-0.13561208546161652,-0.06658431142568588,0.0024434609804302454
1747571343883822300,18.987822265625,-0.12767083942890167,-0.06230825558304787,0.01771509274840355
1747571343899782700,19.00378271484375,-0.11239920556545258,-0.08002334833145142,0.018936822190880775
1747571343915773700,19.019773681640626,-0.0959058403968811,-0.08552113175392151,0.02321287989616394
1747571343931764500,19.035764404296874,-0.06536258012056351,-0.07208210229873657,0.025656340643763542
1747571343947725000,19.05172509765625,-0.039095375686883926,-0.021991148591041565,0.021991148591041565
1747571343963715800,19.0677158203125,-0.03726277872920036,0.05925392732024193,0.018325956538319588
1747571343979707000,19.083706787109374,-0.0354301854968071,0.09957103431224823,0.018325956538319588
1747571343995667200,19.099667236328123,-0.05742133408784866,0.09651670604944229,0.00855211354792118
1747571344011688700,19.115688720703126,-0.08918632566928864,0.06475171446800232,-0.006719517521560192
1747571344027649300,19.131649169921875,-0.11301007121801376,0.03787364438176155,0.00366519158706069
1747571344043609600,19.147609619140624,-0.12339477986097336,0.03237585723400116,0.01466076634824276
1747571344059600600,19.1636005859375,-0.1062905490398407,0.07147123664617538,-0.001832595793530345
1747571344075561000,19.17956103515625,-0.08857546001672745,0.11545353382825851,-0.024434609338641167
1747571344091582500,19.19558251953125,-0.07208210229873657,0.11972958594560623,-0.039706241339445114
1747571344107542800,19.211542724609377,-0.07635815441608429,0.06108652427792549,-0.039706241339445114
1747571344123503400,19.22750341796875,-0.08674286305904388,0.028099801391363144,-0.036651913076639175
1747571344139494100,19.243494140625,-0.08918632566928864,0.025656340643763542,-0.02932153269648552
1747571344155454700,19.259454833984375,-0.07941248267889023,0.022602014243602753,-0.025045474991202354
1747571344171445500,19.275445556640626,-0.06719517707824707,0.025045474991202354,-0.025656340643763542
1747571344187406000,19.291406005859375,-0.04459316283464432,0.022602014243602753,-0.030543262138962746
1747571344203396900,19.30739697265625,-0.02871066704392433,0.003054326167330146,-0.030543262138962746
1747571344219357400,19.323357421875,-0.025045474991202354,-0.02076941914856434,-0.02687807008624077
1747571344235348200,19.33934814453125,-0.029932396486401558,-0.03176499158143997,-0.016493361443281174
1747571344251339300,19.35533935546875,-0.04764748737215996,-0.02015855349600315,0.009162978269159794
1747571344267299600,19.371299560546873,-0.05742133408784866,0.01160643994808197,0.036041051149368286
1747571344283290600,19.38729052734375,-0.05009094998240471,0.04948008432984352,0.054367005825042725
1747571344299251000,19.4032509765625,-0.04153883829712868,0.07819075137376785,0.05742133408784866
1747571344315242000,19.419241943359374,-0.03420845419168472,0.08368854224681854,0.05192354694008827
1747571344331233000,19.43523291015625,-0.02871066704392433,0.06658431142568588,0.036651913076639175
1747571344347193300,19.451193359375,-0.028099801391363144,0.09162978827953339,0.015271631069481373
1747571344363184400,19.467184326171875,-0.03787364438176155,0.14355333149433136,0.012217304669320583
1747571344379144700,19.483144775390624,-0.04153883829712868,0.19364428520202637,0.01771509274840355
1747571344395135700,19.4991357421875,-0.036651913076639175,0.2119702398777008,0.01771509274840355
1747571344411126500,19.51512646484375,-0.029932396486401558,0.17104226350784302,0.007941247895359993
1747571344427087000,19.531087158203125,-0.02871066704392433,0.09712757170200348,0
1747571344443078000,19.547077880859376,-0.025656340643763542,0.027488935738801956,-0.007941247895359993
1747571344459038500,19.56303857421875,-0.018325956538319588,0.02626720629632473,-0.022602014243602753
1747571344475029200,19.579029296875,-0.01160643994808197,0.06108652427792549,-0.028099801391363144
1747571344491020300,19.595020263671874,-0.01038470957428217,0.09346238523721695,-0.033597588539123535
1747571344506980600,19.610980712890626,-0.016493361443281174,0.07452555745840073,-0.03237585723400116
1747571344522971600,19.6269716796875,-0.02076941914856434,0.013439035043120384,-0.01710422709584236
1747571344538932000,19.642931884765623,-0.016493361443281174,-0.0555887371301651,0.003054326167330146
1747571344554923000,19.658923095703123,-0.006108652334660292,-0.07941248267889023,0.00733038317412138
1747571344570914000,19.6749140625,0.00427605677396059,-0.0806342139840126,0.004886921960860491
1747571344586874400,19.690874267578124,0.00855211354792118,-0.08491026610136032,-0.003054326167330146
1747571344602865400,19.706865478515624,0.001832595793530345,-0.06780604273080826,-0.007941247895359993
